stimulus,key_press,trial_type,trial_index,time_elapsed,internal_node_id,condition,voice_type,distorted_audio,sound_file,question_order,hire,hire_rt,intelligence,intelligence_rt,debrief_age,debrief_gender,debrief_audio_output,debrief_audio_problems,debrief_testing,debrief_other,debrief_attention,debrief_audio_quality,debrief_understandable,debrief_hire_exp,data_summary,id
NA,NA,html-keyboard-response,12,164605,0.0-12.0,3,computer,TRUE,sound_files/matthew_sales_short_distort4.mp3,intel-first,35,3657,61,8268,46,male,Headphones,"No, everything went smoothly",People's perceptions based on voice,Everything went smoothly,100,30,85,Yes,TRUE,1
NA,NA,html-keyboard-response,12,131815,0.0-12.0,7,human,TRUE,sound_files/human_sm_distort4.mp3,intel-first,60,2399.2,71,3327.8,38,male,Headphones,no,No idea,Not that I can think of,97,22,68,Yes,TRUE,2
NA,NA,html-keyboard-response,12,163865,0.0-12.0,1,computer,FALSE,sound_files/matthew_sales_short.mp3,intel-first,84,3247,76,4487,40,male,Headphones,no,hiring decisions,no,100,100,100,Yes,TRUE,3
NA,NA,html-keyboard-response,12,169801,0.0-12.0,4,human,FALSE,sound_files/human_sm_undistorted.mp3,hire-first,78,5174.3,80,5383.2,51,male,Headphones,no,my evaluation of a potential hire,no,100,100,100,Yes,TRUE,4
NA,NA,html-keyboard-response,12,120214,0.0-12.0,7,human,TRUE,sound_files/human_sm_distort4.mp3,intel-first,63,3464.2,66,4424.4,50,male,Laptop Speakers,no,"to be honest, i think implicit bias",n/a,97,28,70,Yes,TRUE,5
NA,NA,html-keyboard-response,12,168508,0.0-12.0,0,computer,FALSE,sound_files/matthew_sales_short.mp3,hire-first,60,4425,55,3280,42,female,Earbuds,NA,how artifical voices influence perception of competence,NA,94,62,72,No,TRUE,6
NA,NA,html-keyboard-response,12,284554,0.0-12.0,7,human,TRUE,sound_files/human_sm_distort4.mp3,intel-first,79,5264.7,99,12330.8,44,male,Headphones,None,How you value hiring decisions on an individual for sales and your thoughts on them.,Nothing comes to mind at this time,95,90,100,No,TRUE,7
NA,NA,html-keyboard-response,12,198743,0.0-12.0,6,human,TRUE,sound_files/human_sm_distort4.mp3,hire-first,74,7370.5,84,5502.5,49,male,Laptop Speakers,n/a,I think this experiement was test how a person's vocabulry affect the perception of the person's intelligence and compentence.,n/a,100,40,100,Yes,TRUE,8
NA,NA,html-keyboard-response,12,146412,0.0-12.0,1,computer,FALSE,sound_files/matthew_sales_short.mp3,intel-first,39,3515.9,68,4614.9,43,female,Headphones,No,Something to do with AI?,Nope. Thanks!,100,82,96,Yes,TRUE,9
NA,NA,html-keyboard-response,12,203686,0.0-12.0,7,human,TRUE,sound_files/human_sm_distort4.mp3,intel-first,92,6756.8,85,6662.1,55,male,Laptop Speakers,no,how you perceive hiring someone based on a few statementss,no,91,90,89,Yes,TRUE,10
NA,NA,html-keyboard-response,12,188521,0.0-12.0,0,computer,FALSE,sound_files/matthew_sales_short.mp3,hire-first,77,5527.9,84,3529.1,47,male,Laptop Speakers,no,How the person's job pitch interviewed showed how intelligent they are.,no,100,80,100,No,TRUE,11
NA,NA,html-keyboard-response,12,230958,0.0-12.0,7,human,TRUE,sound_files/human_sm_distort4.mp3,intel-first,69,5989.6,87,8479.8,57,female,Headphones,No,How people perceive someones intelligence just by how they speak?,Nothing.  Thank you,100,36,100,No,TRUE,12
NA,NA,html-keyboard-response,12,309322,0.0-12.0,2,computer,TRUE,sound_files/matthew_sales_short_distort4.mp3,hire-first,14,17664.8,51,10518.7,53,female,External Speakers,The audio was a little muffled and it was a bit hard to understand at the beginning.,I think this experiment was testing whether or not I would hire an AI person or a real person.,The sound was very robotic.,100,30,51,Yes,TRUE,13
NA,NA,html-keyboard-response,12,283385,0.0-12.0,7,human,TRUE,sound_files/human_sm_distort4.mp3,intel-first,84,2348.8,90,5563.7,49,male,Headphones,I had no issues.,Judgement of an individual with varying sound qualities.,Nothing additional.,100,35,100,Yes,TRUE,14
NA,NA,html-keyboard-response,12,351867,0.0-12.0,2,computer,TRUE,sound_files/matthew_sales_short_distort4.mp3,hire-first,62,8559.6,52,8553.7,49,male,Headphones,No problems or difficulties,Comprehension and the ability of AI to market themselves.  Possibly how humanlike AI sounds as opposed to Humans,Nothing else in my opinion.,97,16,86,Yes,TRUE,15
NA,NA,html-keyboard-response,12,249210,0.0-12.0,4,human,FALSE,sound_files/human_sm_undistorted.mp3,hire-first,51,7447,94,18008.2,54,female,Laptop Speakers,no technical difficulties,I honestly have no idea.  I truly don't know.,nothing unusual to note,100,100,100,No,TRUE,16
NA,NA,html-keyboard-response,12,215376,0.0-12.0,0,computer,FALSE,sound_files/matthew_sales_short.mp3,hire-first,28,6400.4,60,4712.3,49,female,Laptop Speakers,N0,Would you hire based on there voice in a personal statement,No,100,79,100,Yes,TRUE,17
NA,NA,html-keyboard-response,12,181392,0.0-12.0,0,computer,FALSE,sound_files/matthew_sales_short.mp3,hire-first,0,6827.6,47,7187.3,64,female,Laptop Speakers,none,perception of voice,sounded like an AI voice - mechanical,100,60,88,Yes,TRUE,18
NA,NA,html-keyboard-response,12,203638,0.0-12.0,0,computer,FALSE,sound_files/matthew_sales_short.mp3,hire-first,72,10656.9,87,3608.1,50,female,Laptop Speakers,No,Opinions on hiring someone based on their tone.,None,100,100,100,No,TRUE,19
NA,NA,html-keyboard-response,12,246573,0.0-12.0,6,human,TRUE,sound_files/human_sm_distort4.mp3,hire-first,39,8108.8,69,8697.5,67,male,Laptop Speakers,No,Whether the tone of voice influenced my hiring decision.,No,100,56,100,No,TRUE,20
NA,NA,html-keyboard-response,12,511435,0.0-12.0,3,computer,TRUE,sound_files/matthew_sales_short_distort4.mp3,intel-first,38,8230.5,35,33689.3,64,female,Laptop Speakers,No,How the content and style of speaking lead or sway you to a certain conclusion .,No,80,35,97,No,TRUE,21
NA,NA,html-keyboard-response,12,235850,0.0-12.0,5,human,FALSE,sound_files/human_sm_undistorted.mp3,intel-first,53,6049,76,11033.4,52,female,Laptop Speakers,"no, i did not",How does voice affect impression of a person,I wasn't sure if I was supposed to consider that the voice didn't sound very human,100,49,98,Yes,TRUE,22
NA,NA,html-keyboard-response,12,206539,0.0-12.0,1,computer,FALSE,sound_files/matthew_sales_short.mp3,intel-first,83,3001.4,87,9111.5,37,male,Headphones,No difficulties at all.,I don't really know. I guess if I would hire the person that has that kind of experience.,No,100,89,100,No,TRUE,23
NA,NA,html-keyboard-response,12,155944,0.0-12.0,4,human,FALSE,sound_files/human_sm_undistorted.mp3,hire-first,89,3846.3,81,4398.8,58,female,Laptop Speakers,no,How people judge the suitability of a job candidate.,no,100,92,100,Yes,TRUE,24
NA,NA,html-keyboard-response,12,176853,0.0-12.0,5,human,FALSE,sound_files/human_sm_undistorted.mp3,intel-first,100,2337.4,100,2711.5,54,male,Headphones,I did not have any technical difficulties.,I think that the experiment was testing if someone would hire someone based on their speaking skills and qualifications.,Nothing else to add.  Everything ran smooth and the person talking was very clear.,100,100,100,Yes,TRUE,25
NA,NA,html-keyboard-response,12,240767,0.0-12.0,3,computer,TRUE,sound_files/matthew_sales_short_distort4.mp3,intel-first,100,5314,100,9532,73,female,Laptop Speakers,none,I am never sure and couldn't even guess,no,100,100,100,Yes,TRUE,26
NA,NA,html-keyboard-response,12,211588,0.0-12.0,7,human,TRUE,sound_files/human_sm_distort4.mp3,intel-first,69,6098.8,77,7508,43,male,Headphones,I did not.,How we form opinions of others with little information.,There was nothing else that had an impact.,100,55,100,No,TRUE,27
NA,NA,html-keyboard-response,12,277724,0.0-12.0,5,human,FALSE,sound_files/human_sm_undistorted.mp3,intel-first,69,11049.8,78,15757.7,59,female,Headphones,No,This experiment was testing voice perception.,No,93,98,100,No,TRUE,28
NA,NA,html-keyboard-response,12,199839,0.0-12.0,6,human,TRUE,sound_files/human_sm_distort4.mp3,hire-first,63,7195.1,64,4590,64,male,Laptop Speakers,no,impressions of a voices tone.,no,100,20,95,No,TRUE,29
NA,NA,html-keyboard-response,12,160842,0.0-12.0,1,computer,FALSE,sound_files/matthew_sales_short.mp3,intel-first,24,2965.4,36,6414.7,30,female,Laptop Speakers,None,Whether we trust/hire AI/monotone speakers? Maybe different participants got a different sounding guy/person.,None,100,100,100,No,TRUE,30
NA,NA,html-keyboard-response,12,198746,0.0-12.0,3,computer,TRUE,sound_files/matthew_sales_short_distort4.mp3,intel-first,49,38224.1,49,18382.9,40,female,Headphones,no,I don't know,no,100,10,40,Yes,TRUE,31
NA,NA,html-keyboard-response,12,216349,0.0-12.0,3,computer,TRUE,sound_files/matthew_sales_short_distort4.mp3,intel-first,92,6176.5,98,7485.9,34,male,Laptop Speakers,No,It was testing how we rate the qualifications of someone applying for a job.,No,100,25,82,Yes,TRUE,32
NA,NA,html-keyboard-response,12,166595,0.0-12.0,2,computer,TRUE,sound_files/matthew_sales_short_distort4.mp3,hire-first,80,10565.6,86,2875.4,46,male,Headphones,none,My ability to judge a person's character from their voice.,"Nothing comes to mind, thank you",93,38,90,Yes,TRUE,33
NA,NA,html-keyboard-response,12,117951,0.0-12.0,6,human,TRUE,sound_files/human_sm_distort4.mp3,hire-first,27,2858.2,49,2030.4,43,male,External Speakers,No issues.,How we judge others speech based on their words.,No.,100,15,100,Yes,TRUE,34
NA,NA,html-keyboard-response,12,179852,0.0-12.0,0,computer,FALSE,sound_files/matthew_sales_short.mp3,hire-first,26,8782.6,74,4485,73,female,Laptop Speakers,none,To see if we recognized ai voice,the ai voice,100,58,85,No,TRUE,35
NA,NA,html-keyboard-response,12,223555,0.0-12.0,7,human,TRUE,sound_files/human_sm_distort4.mp3,intel-first,64,27190.4,89,5697.7,32,female,Laptop Speakers,no,how someones voice effects their ability to be hired,n/a,93,23,91,No,TRUE,36
NA,NA,html-keyboard-response,12,302721,0.0-12.0,4,human,FALSE,sound_files/human_sm_undistorted.mp3,hire-first,86,9311,90,5710,74,female,Laptop Speakers,None,How well me listen doing the survey,Nothinng else,100,86,86,Yes,TRUE,37
NA,NA,html-keyboard-response,12,187402,0.0-12.0,6,human,TRUE,sound_files/human_sm_distort4.mp3,hire-first,77,16788,80,6030.5,46,female,Earbuds,No,Listening comprehension,No - thanks!,77,80,78,Yes,TRUE,38
NA,NA,html-keyboard-response,12,201075,0.0-12.0,6,human,TRUE,sound_files/human_sm_distort4.mp3,hire-first,66,12050,50,9597.9,50,male,Headphones,No difficulties.,My patience.  I hate it when researchers ask this question.,No.,100,40,99,Yes,TRUE,39
NA,NA,html-keyboard-response,12,164978,0.0-12.0,7,human,TRUE,sound_files/human_sm_distort4.mp3,intel-first,90,4351.4,93,4732.4,41,female,Headphones,I didn't experience any technical difficulties.,I think it was about testing audio.,There isn't anything else you should know.,100,27,100,Yes,TRUE,40
NA,NA,html-keyboard-response,12,251683,0.0-12.0,3,computer,TRUE,sound_files/matthew_sales_short_distort4.mp3,intel-first,51,16973.5,74,7957.5,61,male,External Speakers,None,I am not really sure - Perhaps gauging if the audio quality of the clip you played affect likelihood of the applicant being hired.  The audio quality was very low.,None - Good luck with your study,100,1,100,Yes,TRUE,41
NA,NA,html-keyboard-response,12,160017,0.0-12.0,7,human,TRUE,sound_files/human_sm_distort4.mp3,intel-first,78,2027.3,78,4612.2,34,male,Laptop Speakers,I did not.,My thoughts on how impressive a job candidate sounded and perhaps if the poor audio quality impacted my decision.,"Nothing else, but thanks for inviting me",100,10,87,No,TRUE,42
NA,NA,html-keyboard-response,12,232510,0.0-12.0,1,computer,FALSE,sound_files/matthew_sales_short.mp3,intel-first,85,4814.7,90,8207,57,male,Headphones,none,our ability to analyze a job candidate,not at this time,100,89,97,Yes,TRUE,43
NA,NA,html-keyboard-response,12,200805,0.0-12.0,7,human,TRUE,sound_files/human_sm_distort4.mp3,intel-first,39,19888,100,8044,54,female,Laptop Speakers,No,Whether or not study participants thought someone was intelligent from the tone of their voice and the words they used.,No,100,15,100,No,TRUE,44
NA,NA,html-keyboard-response,12,287546,0.0-12.0,4,human,FALSE,sound_files/human_sm_undistorted.mp3,hire-first,85,7351.9,86,8311.8,38,female,Headphones,I didnt experience any difficulties.,I think the study is to see how people perceive and judge others by first impressions.,I understood everything perfectly with no issues.,100,96,100,No,TRUE,45
NA,NA,html-keyboard-response,12,431455,0.0-12.0,4,human,FALSE,sound_files/human_sm_undistorted.mp3,hire-first,67,12649.1,73,9208.8,45,female,Headphones,no,"I'm not sure what is being tested, maybe whether people have different perceptions of a person when they hear them speak vs. see a text or resume or something.",no,92,60,98,No,TRUE,46
NA,NA,html-keyboard-response,12,181330,0.0-12.0,7,human,TRUE,sound_files/human_sm_distort4.mp3,intel-first,96,3198.7,89,4845.2,24,female,Headphones,"No, everything worked great.",To see how we perceive others and how we make hiring decisions based on how they talk or how they present themselves.,"No, I followed the instructions.",100,15,75,No,TRUE,47
NA,NA,html-keyboard-response,12,231625,0.0-12.0,0,computer,FALSE,sound_files/matthew_sales_short.mp3,hire-first,67,18452.4,73,5778,47,female,Laptop Speakers,No,How a computer generated voice affects our perception of the content of a message.,No,87,80,98,Yes,TRUE,48
NA,NA,html-keyboard-response,12,220087,0.0-12.0,6,human,TRUE,sound_files/human_sm_distort4.mp3,hire-first,80,12912.6,67,4624.3,56,female,Laptop Speakers,no,IDK. No idea.,no,100,25,100,No,TRUE,49
NA,NA,html-keyboard-response,12,179015,0.0-12.0,3,computer,TRUE,sound_files/matthew_sales_short_distort4.mp3,intel-first,32,2446.3,39,3807,43,male,Headphones,no,trust in digitatl voices,no,100,27,98,Yes,TRUE,50
NA,NA,html-keyboard-response,12,198012,0.0-12.0,4,human,FALSE,sound_files/human_sm_undistorted.mp3,hire-first,63,9951.1,81,6471.5,52,female,Headphones,I had no issues.,"How people react to different voices, accents and what people say.",I have nothing more to add.,100,100,100,Yes,TRUE,51
NA,NA,html-keyboard-response,12,154144,0.0-12.0,1,computer,FALSE,sound_files/matthew_sales_short.mp3,intel-first,83,3490.7,82,11687.9,36,female,Laptop Speakers,no,how well we understand someone speaking over the internet,no,100,90,90,Yes,TRUE,52
NA,NA,html-keyboard-response,12,136470,0.0-12.0,6,human,TRUE,sound_files/human_sm_distort4.mp3,hire-first,83,4522,79,2847.3,42,male,Headphones,no,how fit for the job we viewed the candidate based on how they talked,no,100,46,79,Yes,TRUE,53
NA,NA,html-keyboard-response,12,306190,0.0-12.0,2,computer,TRUE,sound_files/matthew_sales_short_distort4.mp3,hire-first,67,19900.8,82,23571.5,42,female,Laptop Speakers,No problems,Perceptions of hiring an individual based on their answers and tone.,No,100,70,100,Yes,TRUE,54
NA,NA,html-keyboard-response,12,259921,0.0-12.0,2,computer,TRUE,sound_files/matthew_sales_short_distort4.mp3,hire-first,2,4636.7,49,10065.3,53,male,Headphones,"all good, thanks",I think the experiment was testing the perception of a candidate based on the choice of audio recording style,"the recording sounded artificial, so I wondered if AI was used by the candidate rather than a personal recording",99,20,90,Yes,TRUE,55
NA,NA,html-keyboard-response,12,235569,0.0-12.0,5,human,FALSE,sound_files/human_sm_undistorted.mp3,intel-first,88,2895.8,91,3850.7,27,female,Laptop Speakers,No,I believe this study was testing peoples perception of an applicant,No,100,95,100,No,TRUE,56
NA,NA,html-keyboard-response,12,308689,0.0-12.0,6,human,TRUE,sound_files/human_sm_distort4.mp3,hire-first,88,14825.2,80,8440.3,54,female,Laptop Speakers,no,I am guessing different participants heard the same messsage but with different voices and you are comparing perceptions,no,96,65,100,No,TRUE,57
NA,NA,html-keyboard-response,12,258481,0.0-12.0,5,human,FALSE,sound_files/human_sm_undistorted.mp3,intel-first,81,6366.5,85,9243.4,21,male,Headphones,N/A,How participants perceive applicants based on personal statements only.,Not that I know of.,95,90,100,No,TRUE,58
NA,NA,html-keyboard-response,12,261612,0.0-12.0,6,human,TRUE,sound_files/human_sm_distort4.mp3,hire-first,82,12819,93,4104,36,male,Headphones,None,To see what our impression is of someone applying for a position.,Nothing,100,17,100,No,TRUE,59
NA,NA,html-keyboard-response,12,165740,0.0-12.0,5,human,FALSE,sound_files/human_sm_undistorted.mp3,intel-first,71,3394.9,81,7532,28,male,Laptop Speakers,No,How a slight accent can affect opinions about the intelligence of an individual,No,83,98,96,No,TRUE,60
NA,NA,html-keyboard-response,12,221507,0.0-12.0,2,computer,TRUE,sound_files/matthew_sales_short_distort4.mp3,hire-first,56,8405.6,63,5302.6,69,male,Headphones,no,not really sure.,no,100,38,86,Yes,TRUE,61
NA,NA,html-keyboard-response,12,174857,0.0-12.0,4,human,FALSE,sound_files/human_sm_undistorted.mp3,hire-first,71,2845.6,90,3965,48,male,Laptop Speakers,no,how people view a job candidate.,NA,56,91,100,No,TRUE,62
NA,NA,html-keyboard-response,12,127710,0.0-12.0,6,human,TRUE,sound_files/human_sm_distort4.mp3,hire-first,29,4241.8,35,2483,65,male,Headphones,no,I have no idea,no,93,23,68,Yes,TRUE,63
NA,NA,html-keyboard-response,12,158620,0.0-12.0,0,computer,FALSE,sound_files/matthew_sales_short.mp3,hire-first,55,6164.9,66,4726,54,female,Laptop Speakers,no,The sound on my laptop.,no,97,93,91,No,TRUE,64
NA,NA,html-keyboard-response,12,703846,0.0-12.0,2,computer,TRUE,sound_files/matthew_sales_short_distort4.mp3,hire-first,79,19947.8,85,11662.6,28,male,Laptop Speakers,I did not experience any technical difficulties in playing the audio. I was not distracted by anything while I was listening to the audio.,I think that this experiment was testing perception. I think that this experiment wants to research how people who do this experiment perceive the author of the personal statement that is presented as an audio clip in this experiment based on the information that is included in this experiment about the author in the audio clip in this experiment.,There is nothing else that you should know in regards to myself or how I did this experiment in relation to my results in this experiment.,100,75,100,No,TRUE,65
NA,NA,html-keyboard-response,12,240989,0.0-12.0,7,human,TRUE,sound_files/human_sm_distort4.mp3,intel-first,23,5646,46,19219.2,55,male,Earbuds,n/a,Our perception of people based on what they say and how they sound.,n/a,100,85,100,Yes,TRUE,66
NA,NA,html-keyboard-response,12,255992,0.0-12.0,6,human,TRUE,sound_files/human_sm_distort4.mp3,hire-first,56,13239,79,8318.9,52,male,Headphones,No.,I think it is testing our impressions of a candidate's quality based on the quality of the audio file.  The person spoke well but the file did sound like it was done while in a tin can.,No.,100,13,100,Yes,TRUE,67
NA,NA,html-keyboard-response,12,215998,0.0-12.0,7,human,TRUE,sound_files/human_sm_distort4.mp3,intel-first,88,3307.9,86,3724.3,33,male,Laptop Speakers,None,To see how listening to a prospective candidate for a job talking about themselves affects how we think of their potential skill and likelihood of being hired.,No,100,41,99,No,TRUE,68
NA,NA,html-keyboard-response,12,227608,0.0-12.0,5,human,FALSE,sound_files/human_sm_undistorted.mp3,intel-first,71,5378.7,94,7888.8,53,female,Laptop Speakers,No,I think the experiment is testing likelihood of hiring based on voice tone/type or gender.,No,98,100,100,Yes,TRUE,69
NA,NA,html-keyboard-response,12,166642,0.0-12.0,7,human,TRUE,sound_files/human_sm_distort4.mp3,intel-first,73,2848.7,78,4090.6,37,male,Headphones,No,I think you are trying to understand how people form impressions of others.,No,100,68,100,Yes,TRUE,70
NA,NA,html-keyboard-response,12,349845,0.0-12.0,0,computer,FALSE,sound_files/matthew_sales_short.mp3,hire-first,100,10086.6,88,5408.8,38,male,Laptop Speakers,"Yes, in the background  a crow was cawing and it sounds like the wind is blowing",I think it was testing how people promote themselves when applying for a new job.,no,60,64,98,No,TRUE,71
NA,NA,html-keyboard-response,12,157602,0.0-12.0,3,computer,TRUE,sound_files/matthew_sales_short_distort4.mp3,intel-first,79,3282.8,82,5270.3,44,female,Headphones,no,How persuasive the applicant was,no,100,30,100,Yes,TRUE,72
NA,NA,html-keyboard-response,12,396080,0.0-12.0,1,computer,FALSE,sound_files/matthew_sales_short.mp3,intel-first,4,9125.7,46,22646.2,64,female,Laptop Speakers,No issues,"I'm unsure. Since the voice was AI, or something like that, the purpose might be to see what people think about automated resumes.",Nothing else comes to mind. Thank you,99,58,100,No,TRUE,73
NA,NA,html-keyboard-response,12,206986,0.0-12.0,1,computer,FALSE,sound_files/matthew_sales_short.mp3,intel-first,35,4662.5,75,11043.9,65,female,Headphones,no,I don't know,no,100,97,100,Yes,TRUE,74
NA,NA,html-keyboard-response,12,225131,0.0-12.0,4,human,FALSE,sound_files/human_sm_undistorted.mp3,hire-first,32,7745.8,71,4301.3,42,female,Laptop Speakers,NA,Tone of voice and sex for job canidates,Speaker wasn't monotone but lacked excitement for role,95,100,100,Yes,TRUE,75
NA,NA,html-keyboard-response,12,979630,0.0-12.0,1,computer,FALSE,sound_files/matthew_sales_short.mp3,intel-first,59,8187,82,20788,62,male,Earbuds,No problems.,"I'm not sure what the experiment is testing, because I'm not sure what the variables are.  Perhaps the study may vary the audio statement by gender, but I don't know.  Or perhaps the study may vary the audio statement with human voice recordings versus AI voice recordings.  (I heard an AI voice, but I assumed it represented a reading of a human applicant's statement.)  Or perhaps the study may vary the statement content in other ways and measure resulting effects on responses.  I'm not sure what research goals the study pursues.",I wondered if I missed anything in the instructions to tell me if I was wrong to disregard the use of AI to voice the applicant's statement.  I simply interpreted it as a human applicant's written statement that just happened to be voiced by AI for this study.  So I judged the applicant in the same way that I would have judged if the statement had been voiced by a human for this study.,100,88,100,No,TRUE,76
NA,NA,html-keyboard-response,12,160800,0.0-12.0,6,human,TRUE,sound_files/human_sm_distort4.mp3,hire-first,55,52695.3,63,3773.5,30,female,Laptop Speakers,no,Audio quality impact on rating of someone.,no,100,32,73,No,TRUE,77
NA,NA,html-keyboard-response,12,217679,0.0-12.0,5,human,FALSE,sound_files/human_sm_undistorted.mp3,intel-first,71,3554.5,82,7274,24,female,Laptop Speakers,No,Peoples ability to pay attention,None,100,100,100,No,TRUE,78
NA,NA,html-keyboard-response,12,158331,0.0-12.0,7,human,TRUE,sound_files/human_sm_distort4.mp3,intel-first,70,3726.2,74,8409.1,47,male,Laptop Speakers,It was a little tinny.,The quality of voice of the software.,N/A,98,37,85,Yes,TRUE,79
NA,NA,html-keyboard-response,12,341740,0.0-12.0,0,computer,FALSE,sound_files/matthew_sales_short.mp3,hire-first,84,10790.1,77,9138.9,38,female,Laptop Speakers,no,Whether the individual was qualified to be hired for a job position.,no,96,40,98,Yes,TRUE,80
NA,NA,html-keyboard-response,12,127933,0.0-12.0,2,computer,TRUE,sound_files/matthew_sales_short_distort4.mp3,hire-first,89,5037.4,75,3132.8,61,male,Headphones,no,If the Ai talking is convincing,no,100,9,63,Yes,TRUE,81
NA,NA,html-keyboard-response,12,255513,0.0-12.0,4,human,FALSE,sound_files/human_sm_undistorted.mp3,hire-first,93,11898.1,97,5814.2,52,female,Laptop Speakers,no,I think it was seeing what I thought of the job applicant for the position.,"I thought the applicant was smart and qualified. However, he sounded like a pompous ass.",100,100,100,Yes,TRUE,82
NA,NA,html-keyboard-response,12,175233,0.0-12.0,3,computer,TRUE,sound_files/matthew_sales_short_distort4.mp3,intel-first,6,2901,38,4499,42,female,Headphones,no,After listening to how someone speaks would I hire them,n/a nothing impacted my results,100,49,100,No,TRUE,83
NA,NA,html-keyboard-response,12,315228,0.0-12.0,3,computer,TRUE,sound_files/matthew_sales_short_distort4.mp3,intel-first,47,2900.2,71,5897.8,59,female,Headphones,No,I'm not sure,I thought the guy's voice was a little weird.,100,74,100,No,TRUE,84
NA,NA,html-keyboard-response,12,201013,0.0-12.0,0,computer,FALSE,sound_files/matthew_sales_short.mp3,hire-first,91,5275,88,5882,42,female,External Speakers,no,to see if we like what the person was saying to get hired,no,100,69,80,Yes,TRUE,85
NA,NA,html-keyboard-response,12,240890,0.0-12.0,5,human,FALSE,sound_files/human_sm_undistorted.mp3,intel-first,46,14531.3,59,13262.4,49,male,Laptop Speakers,no,perceptions and attitudes towards intelligence,no,97,95,98,No,TRUE,86
NA,NA,html-keyboard-response,12,188714,0.0-12.0,1,computer,FALSE,sound_files/matthew_sales_short.mp3,intel-first,21,5525.3,77,13079,51,female,Laptop Speakers,N/A,Whether I would hire someone who sounded robotic.,No.,96,87,100,No,TRUE,87
NA,NA,html-keyboard-response,12,136750,0.0-12.0,4,human,FALSE,sound_files/human_sm_undistorted.mp3,hire-first,80,3181.7,85,3204.8,37,female,Laptop Speakers,no,I think this experiment was testing my judgment of a candidate based on an audio clip.,no,100,92,96,No,TRUE,88
NA,NA,html-keyboard-response,12,261861,0.0-12.0,5,human,FALSE,sound_files/human_sm_undistorted.mp3,intel-first,94,5359.3,96,11508.9,79,male,Earbuds,no,How people are hired  at a company after the interview.,no,100,79,100,No,TRUE,89
NA,NA,html-keyboard-response,12,237412,0.0-12.0,3,computer,TRUE,sound_files/matthew_sales_short_distort4.mp3,intel-first,15,4116,65,11103,36,male,Earbuds,no issues at all,I think it may have been testing how the content of a statement versus aspects of the speaker saying it affect how we think about the speaker.,nothing else,100,15,80,No,TRUE,90
NA,NA,html-keyboard-response,12,189204,0.0-12.0,6,human,TRUE,sound_files/human_sm_distort4.mp3,hire-first,90,10029.5,85,8125.4,54,male,Headphones,no,hiring practices,no,100,52,100,Yes,TRUE,91
NA,NA,html-keyboard-response,12,1270240,0.0-12.0,6,human,TRUE,sound_files/human_sm_distort4.mp3,hire-first,76,3291.5,88,2790.2,36,female,Laptop Speakers,no,If I would hire a worker for a position.,N/A,98,44,87,Yes,TRUE,92
NA,NA,html-keyboard-response,12,141486,0.0-12.0,5,human,FALSE,sound_files/human_sm_undistorted.mp3,intel-first,37,1948.3,53,4428.9,38,male,Laptop Speakers,"No, none.",I have no good clue.,"It was sort of impersonal and he sounded a little arrogant, to me.",96,90,97,Yes,TRUE,93
NA,NA,html-keyboard-response,12,712731,0.0-12.0,5,human,FALSE,sound_files/human_sm_undistorted.mp3,intel-first,74,58272,71,9517.3,47,female,External Speakers,none,how you pay attention,no i dont believe so.,99,89,89,Yes,TRUE,94
NA,NA,html-keyboard-response,12,160367,0.0-12.0,0,computer,FALSE,sound_files/matthew_sales_short.mp3,hire-first,89,7860.2,91,5787.3,41,female,Headphones,none,Hiring decision,none,100,83,100,No,TRUE,95
NA,NA,html-keyboard-response,12,181997,0.0-12.0,7,human,TRUE,sound_files/human_sm_distort4.mp3,intel-first,67,4293.5,73,10137.9,47,male,Laptop Speakers,No,How the person's tone effects judgement.,:),100,60,100,No,TRUE,96
NA,NA,html-keyboard-response,12,211427,0.0-12.0,2,computer,TRUE,sound_files/matthew_sales_short_distort4.mp3,hire-first,31,5889.5,63,2806.3,55,female,External Speakers,No,Skills versus personality (or lack thereof) of the applicant.,"The applicant did not sound like a human, but rather AI.",100,20,44,Yes,TRUE,97
NA,NA,html-keyboard-response,12,141415,0.0-12.0,4,human,FALSE,sound_files/human_sm_undistorted.mp3,hire-first,59,3784.4,56,2623.4,54,male,External Speakers,none,My bias towards a confident male voice.,the small radial buttons are annoying.  Make them bigger next time.,100,94,100,Yes,TRUE,98
NA,NA,html-keyboard-response,12,140747,0.0-12.0,1,computer,FALSE,sound_files/matthew_sales_short.mp3,intel-first,100,4638,100,8193.4,52,male,External Speakers,None,No idea,N/A,100,100,100,Yes,TRUE,99
NA,NA,html-keyboard-response,12,280404,0.0-12.0,4,human,FALSE,sound_files/human_sm_undistorted.mp3,hire-first,87,7950.7,74,3269.3,56,female,Earbuds,No.,I'm not sure. This is extremely difficult to determine after listening to an AI-generated voice reading a basic resume statement.,No.,100,85,100,No,TRUE,100
NA,NA,html-keyboard-response,12,123882,0.0-12.0,5,human,FALSE,sound_files/human_sm_undistorted.mp3,intel-first,84,2629.7,80,3392.4,39,male,Laptop Speakers,no,How people judge other based on speech,no,100,96,100,No,TRUE,101
NA,NA,html-keyboard-response,12,580222,0.0-12.0,1,computer,FALSE,sound_files/matthew_sales_short.mp3,intel-first,14,6170.2,86,9432,60,male,Headphones,none,The voice sounded like AI,voice as AI,97,65,86,Yes,TRUE,102
NA,NA,html-keyboard-response,12,132809,0.0-12.0,4,human,FALSE,sound_files/human_sm_undistorted.mp3,hire-first,76,4294.8,89,2356.1,29,female,Laptop Speakers,No,Confidence and intelligence based on speech.,no,95,73,88,No,TRUE,103
NA,NA,html-keyboard-response,12,194885,0.0-12.0,2,computer,TRUE,sound_files/matthew_sales_short_distort4.mp3,hire-first,85,5407.2,83,3196.5,39,female,Headphones,no,I have no idea.,no,100,17,87,Yes,TRUE,104
NA,NA,html-keyboard-response,12,119358,0.0-12.0,4,human,FALSE,sound_files/human_sm_undistorted.mp3,hire-first,76,3676.6,81,3198.5,48,male,Headphones,no,hiring decisions based on info given,all good thanks,100,87,100,Yes,TRUE,105
NA,NA,html-keyboard-response,12,146080,0.0-12.0,5,human,FALSE,sound_files/human_sm_undistorted.mp3,intel-first,86,2298.4,89,4150.1,34,female,Laptop Speakers,n/a,How someone may perceive others based on how they speak and sound,n/a,100,96,100,Yes,TRUE,106
NA,NA,html-keyboard-response,12,362769,0.0-12.0,7,human,TRUE,sound_files/human_sm_distort4.mp3,intel-first,92,4324.8,91,11041.2,52,female,External Speakers,"No, I did not experience any diificulties","I'm not certain but possibly to collect data on how one may judge another persons intelligence based on limited information and further, how likely one may hire another based on this limiting information.","No, nothing impacted me or my results. Thank you for this unique study. I enjoyed it.",100,60,97,Yes,TRUE,107
NA,NA,html-keyboard-response,12,350866,0.0-12.0,2,computer,TRUE,sound_files/matthew_sales_short_distort4.mp3,hire-first,52,13027.2,54,30971.5,26,male,Headphones,No,How people make judgments based off of people's spoken language,No,100,39,81,No,TRUE,108
NA,NA,html-keyboard-response,12,219099,0.0-12.0,7,human,TRUE,sound_files/human_sm_distort4.mp3,intel-first,69,2145.2,77,4754.8,25,male,Earbuds,n/a,I think it was testing a person's correlation of intelligence and articulation.,no,81,44,79,No,TRUE,109
NA,NA,html-keyboard-response,12,202054,0.0-12.0,0,computer,FALSE,sound_files/matthew_sales_short.mp3,hire-first,87,4690.3,86,4637.6,52,female,Laptop Speakers,"No, I did not experience any technical difficulties in playing the audio.",The experiment was testing people's perceptions of different job candidates.,Not at this time,100,60,100,Yes,TRUE,110
NA,NA,html-keyboard-response,12,230732,0.0-12.0,6,human,TRUE,sound_files/human_sm_distort4.mp3,hire-first,89,6832.7,88,5148.6,44,female,Laptop Speakers,No,"Judging a candidate from their experience, voice, and words that they used",no,95,36,75,No,TRUE,111
NA,NA,html-keyboard-response,12,210883,0.0-12.0,4,human,FALSE,sound_files/human_sm_undistorted.mp3,hire-first,89,5405.6,84,12928.3,45,female,Laptop Speakers,no,I really have no idea.,no,100,100,100,No,TRUE,112
NA,NA,html-keyboard-response,12,527306,0.0-12.0,3,computer,TRUE,sound_files/matthew_sales_short_distort4.mp3,intel-first,24,5574.7,44,14019.3,39,male,Headphones,No,"I don't know. I feel like the decision to use a robotic voice instead of a natural human voice biased my responses because: 1) who's going to hire a robot? and 2) even if the statement was made by a human being and the voice was made robotic in order to protect their identity, my response becomes biased because I'm not aware of this and I feel like I'm being asked to hire a robot and not a person",Can't tell if it's a human candidate whose voice was obscured to sound robotic or it's a robot candidate.,100,25,100,Yes,TRUE,113
NA,NA,html-keyboard-response,12,223909,0.0-12.0,2,computer,TRUE,sound_files/matthew_sales_short_distort4.mp3,hire-first,70,11606.7,68,5065.1,38,male,Headphones,no,It was testing to see if we had biases based on the sound of the person's voice,no,90,40,80,No,TRUE,114
NA,NA,html-keyboard-response,12,292536,0.0-12.0,7,human,TRUE,sound_files/human_sm_distort4.mp3,intel-first,74,11788.1,77,5614,25,female,Laptop Speakers,No difficulties were encountered.,Examining people's perceptions.,Not really,100,83,100,Yes,TRUE,115
NA,NA,html-keyboard-response,12,103607,0.0-12.0,2,computer,TRUE,sound_files/matthew_sales_short_distort4.mp3,hire-first,63,5740.3,70,3474.6,34,male,Laptop Speakers,no,applications,no,85,80,82,Yes,TRUE,116
NA,NA,html-keyboard-response,12,242168,0.0-12.0,5,human,FALSE,sound_files/human_sm_undistorted.mp3,intel-first,94,7723,100,4257,54,female,Laptop Speakers,none,If we thought a certain ethnicity was more intelligent and would we hire someone with an accent/minority.,"I am very impressed with people that are fluent in more than one language. Most people around my area only speak one. I think that alone shows a level of intelligence. It is something we should be impressed with. It is so offensive to me when people discriminate against someone with an accent. It makes me want to ask them, well, how many languages can you speak?",100,100,100,No,TRUE,117
NA,NA,html-keyboard-response,12,209559,0.0-12.0,1,computer,FALSE,sound_files/matthew_sales_short.mp3,intel-first,70,3776,80,5139.7,32,male,Laptop Speakers,"No, everything was fine, thank you for the opportunity.","One's ability to determine if someone is a good fit for a position or not, also to determine if people would disqualify a person due to them sounding robotic or AI.","No, thank you for the opportunity.",88,80,90,No,TRUE,118
NA,NA,html-keyboard-response,12,174523,0.0-12.0,3,computer,TRUE,sound_files/matthew_sales_short_distort4.mp3,intel-first,54,4549.1,62,6686.4,62,female,Laptop Speakers,no,Participant's ability to choose when faced with a hiring decision,no,100,17,95,Yes,TRUE,119
NA,NA,html-keyboard-response,12,187028,0.0-12.0,6,human,TRUE,sound_files/human_sm_distort4.mp3,hire-first,73,6008.3,83,4800.2,34,male,Headphones,"No, everything was good.",I think this experiment was testing the hire ability of an individual.,Everything was good.,100,100,100,No,TRUE,120
NA,NA,html-keyboard-response,12,286643,0.0-12.0,5,human,FALSE,sound_files/human_sm_undistorted.mp3,intel-first,77,5708.3,74,8947.1,71,female,External Speakers,None,Judging character with very little information.,All was clear and understandable.,100,98,100,No,TRUE,121
NA,NA,html-keyboard-response,12,296544,0.0-12.0,0,computer,FALSE,sound_files/matthew_sales_short.mp3,hire-first,82,7093.2,80,3632.8,59,female,External Speakers,No.,This was testing personal statements regarding qualifications that would prompt hiring of an individual.,It did sound more like a machine than a person.  But that did not impact how I did the experiment.,100,57,100,Yes,TRUE,122
NA,NA,html-keyboard-response,12,189679,0.0-12.0,6,human,TRUE,sound_files/human_sm_distort4.mp3,hire-first,100,5005.1,100,8263.1,56,female,Earbuds,none,effective listening,none,100,78,97,No,TRUE,123
NA,NA,html-keyboard-response,12,128742,0.0-12.0,3,computer,TRUE,sound_files/matthew_sales_short_distort4.mp3,intel-first,63,3695.1,77,4819,56,male,Headphones,no problems,i have no idea,nope all good,100,15,100,Yes,TRUE,124
NA,NA,html-keyboard-response,12,163535,0.0-12.0,4,human,FALSE,sound_files/human_sm_undistorted.mp3,hire-first,75,6422.2,80,4994.9,44,female,Laptop Speakers,no,People's perceptions of an employment candidate,n/a,90,100,100,No,TRUE,125
NA,NA,html-keyboard-response,12,164713,0.0-12.0,6,human,TRUE,sound_files/human_sm_distort4.mp3,hire-first,75,11151.4,75,6115.3,32,male,Headphones,No,Perceptions of confidence,No,100,40,100,Yes,TRUE,126
NA,NA,html-keyboard-response,12,201853,0.0-12.0,0,computer,FALSE,sound_files/matthew_sales_short.mp3,hire-first,55,6368.7,65,9563.8,61,female,Headphones,no,I have no idea what this experiment was testing,no,97,92,97,No,TRUE,127
NA,NA,html-keyboard-response,12,285454,0.0-12.0,0,computer,FALSE,sound_files/matthew_sales_short.mp3,hire-first,78,6780.8,78,5277.2,36,male,Headphones,No,I'm guessing it's about how we evaluate competence based on a quick first impression.,No,100,100,100,No,TRUE,128
NA,NA,html-keyboard-response,12,142890,0.0-12.0,3,computer,TRUE,sound_files/matthew_sales_short_distort4.mp3,intel-first,69,3105.3,77,6172.9,47,male,External Speakers,No,How to perceive audio of an employe,No,100,33,91,Yes,TRUE,129
NA,NA,html-keyboard-response,12,266270,0.0-12.0,4,human,FALSE,sound_files/human_sm_undistorted.mp3,hire-first,80,10735.1,78,6114.3,54,female,Headphones,No,The way you percieve someone just by hearing them,N/A,100,90,100,No,TRUE,130
NA,NA,html-keyboard-response,12,227485,0.0-12.0,3,computer,TRUE,sound_files/matthew_sales_short_distort4.mp3,intel-first,68,3907.5,73,8810.9,33,male,Laptop Speakers,None,I think it was testing how people perceive others by intelligence with how they speak,None,100,30,80,Yes,TRUE,131
NA,NA,html-keyboard-response,12,152242,0.0-12.0,5,human,FALSE,sound_files/human_sm_undistorted.mp3,intel-first,97,1831.3,82,4141.7,28,male,Laptop Speakers,None,How smart a person sounds for a job,Na,100,86,100,No,TRUE,132
NA,NA,html-keyboard-response,12,398055,0.0-12.0,3,computer,TRUE,sound_files/matthew_sales_short_distort4.mp3,intel-first,89,4719,88,6937.8,49,female,Headphones,There were no technical difficulties in the audio and nothing distracted me while listening to the audio.,This experiment was testing the qualifications of a senior sales manager candidate.,There is nothing I can think of at this time,100,59,100,Yes,TRUE,133
NA,NA,html-keyboard-response,12,159707,0.0-12.0,3,computer,TRUE,sound_files/matthew_sales_short_distort4.mp3,intel-first,79,2561.3,76,4500.8,24,female,Laptop Speakers,no,Testing the analysis of the persons answer and if we would hire them based on our analysis.,The audio was a little hard to understand,100,25,61,No,TRUE,134
NA,NA,html-keyboard-response,12,166392,0.0-12.0,3,computer,TRUE,sound_files/matthew_sales_short_distort4.mp3,intel-first,58,8763.5,69,8435.1,45,male,Laptop Speakers,no,What I thought of the applicant.,no,86,31,77,No,TRUE,135
NA,NA,html-keyboard-response,12,316418,0.0-12.0,4,human,FALSE,sound_files/human_sm_undistorted.mp3,hire-first,74,14333,73,5748,62,male,Headphones,"No, i did not experience any difficulty.",The likelihood of hiring a person based upon ther verbal summation of thier work history for a management position.,"No, nothing additional.",100,100,100,Yes,TRUE,136
NA,NA,html-keyboard-response,12,219314,0.0-12.0,2,computer,TRUE,sound_files/matthew_sales_short_distort4.mp3,hire-first,0,11253,57,6713.9,63,female,Headphones,NO,Perception of someone through listening to their discription of their abilities and voice.,Good luck with your research!,100,100,100,Yes,TRUE,137
NA,NA,html-keyboard-response,12,140454,0.0-12.0,6,human,TRUE,sound_files/human_sm_distort4.mp3,hire-first,66,5315.9,60,3531.2,33,other,Laptop Speakers,I did not.,I think the experiment was testing how likely one would be to hire the person for a sales role given limited information and only the person's voice and a few traits or level of experience to go on.,No,100,54,100,Yes,TRUE,138
NA,NA,html-keyboard-response,12,392181,0.0-12.0,2,computer,TRUE,sound_files/matthew_sales_short_distort4.mp3,hire-first,86,12956.5,61,5217.7,50,female,Laptop Speakers,no,opinions on decisions,nice studies,85,95,100,No,TRUE,139
NA,NA,html-keyboard-response,12,183845,0.0-12.0,3,computer,TRUE,sound_files/matthew_sales_short_distort4.mp3,intel-first,31,11805,10,11298.6,55,female,Laptop Speakers,no,I don't know. I guess how intelligent people sound when filtered through some sort of mechanical device.,no,84,22,44,Yes,TRUE,140
NA,NA,html-keyboard-response,12,190778,0.0-12.0,7,human,TRUE,sound_files/human_sm_distort4.mp3,intel-first,38,3181.1,64,6172.900001,56,male,Headphones,No,The audio was terrible and it made the prospect sound creepy and not real.,"No, things worked well.",100,1,67,Yes,TRUE,141
NA,NA,html-keyboard-response,12,192820,0.0-12.0,6,human,TRUE,sound_files/human_sm_distort4.mp3,hire-first,59,9208.2,79,4312.9,63,female,Laptop Speakers,no,Making judgements of others based on verbal cues only,no,100,41,100,Yes,TRUE,142
NA,NA,html-keyboard-response,12,259771,0.0-12.0,6,human,TRUE,sound_files/human_sm_distort4.mp3,hire-first,56,7674.7,63,6871.9,49,female,Laptop Speakers,no,how professional someone sounds,n/a,79,59,72,No,TRUE,143
NA,NA,html-keyboard-response,12,281588,0.0-12.0,1,computer,FALSE,sound_files/matthew_sales_short.mp3,intel-first,67,7271.7,57,5864.4,32,female,Headphones,no technical difficulties.,It was testing how we review applicants based on listening to their resume vs. reading their resume.,none,100,100,96,No,TRUE,144
NA,NA,html-keyboard-response,12,408535,0.0-12.0,0,computer,FALSE,sound_files/matthew_sales_short.mp3,hire-first,73,9684.8,77,5030.2,36,female,Laptop Speakers,No,I really have no idea what the experiment is testing.,No,100,88,88,No,TRUE,145
NA,NA,html-keyboard-response,12,532034,0.0-12.0,5,human,FALSE,sound_files/human_sm_undistorted.mp3,intel-first,100,9368.7,97,13961.2,66,female,Headphones,No I did not experience any technical difficulties.,How I form impressions about hiring someone and their personal statement.,It is a very interesting study. Thanks!,100,100,100,No,TRUE,146
NA,NA,html-keyboard-response,12,247024,0.0-12.0,1,computer,FALSE,sound_files/matthew_sales_short.mp3,intel-first,93,5063,87,5341,59,female,External Speakers,No difficulties with study.,Decison on hiring a candidate for a job position from listening to the candidate tell about their prior experience and work ethics.,N/A,99,90,99,No,TRUE,147
NA,NA,html-keyboard-response,12,544633,0.0-12.0,3,computer,TRUE,sound_files/matthew_sales_short_distort4.mp3,intel-first,100,9715,92,25241.7,39,male,Laptop Speakers,I did not experience any technical difficulties in playing the audio and I was not distracted by anything while listening to this specific audio information.,"I think that this study was evaluating and analyzing how a person might choose to distinguish key details regarding a hiring decision within a scenario, and whether these important details help to enhance the possibility of an applicant's chance of being hired for a job position like the senior sales manager employment position.",The audio was not the best quality as it was quite hard to understand the applicant and speaker in the main audio recording in the research study. This might have been done deliberately but it is something that I noticed about this survey and how it was presented.,100,19,68,Yes,TRUE,148
NA,NA,html-keyboard-response,12,355600,0.0-12.0,6,human,TRUE,sound_files/human_sm_distort4.mp3,hire-first,41,8708.8,48,4838.9,41,male,Laptop Speakers,no,Can we judge a good applicant for a job based on hearing their voice and qualifications.,no,100,31,54,No,TRUE,149
NA,NA,html-keyboard-response,12,116397,0.0-12.0,2,computer,TRUE,sound_files/matthew_sales_short_distort4.mp3,hire-first,74,3744.2,66,2718.6,42,male,Laptop Speakers,No,To see what we thought of someone describing himself,I thought this was interesting,100,29,82,Yes,TRUE,150
NA,NA,html-keyboard-response,12,257181,0.0-12.0,1,computer,FALSE,sound_files/matthew_sales_short.mp3,intel-first,50,10721.6,100,11459.3,58,female,Laptop Speakers,no,Whether or not intelligence is a determining factor for being hired for highly competitive jobs.,No,100,92,100,Yes,TRUE,151
NA,NA,html-keyboard-response,12,171234,0.0-12.0,7,human,TRUE,sound_files/human_sm_distort4.mp3,intel-first,76,3853.6,84,4011.1,52,female,Laptop Speakers,No,Qualifications of an applicant.,"The audio was not very clean sounding. There were a lot of pops and tinny sounds. Given technology today, I feel like it could have been cleaner sounding.",100,38,60,Yes,TRUE,152
NA,NA,html-keyboard-response,12,174274,0.0-12.0,0,computer,FALSE,sound_files/matthew_sales_short.mp3,hire-first,65,6812.8,76,5742.1,63,male,Headphones,No problems.,I assume it is about my thoughts on a job candidate based on the audio clip.,"No problems, everything worked fine.",100,100,100,Yes,TRUE,153
NA,NA,html-keyboard-response,12,412220,0.0-12.0,6,human,TRUE,sound_files/human_sm_distort4.mp3,hire-first,80,3139.5,73,21911.4,28,male,Headphones,no,Perception of people speaking or being interviewed,no,97,77,76,Yes,TRUE,154
NA,NA,html-keyboard-response,12,240763,0.0-12.0,7,human,TRUE,sound_files/human_sm_distort4.mp3,intel-first,67,5585.4,77,13511.2,46,male,Headphones,no,To see if the quality of a recording would influence my impression of someone.,n/a,100,25,90,No,TRUE,155
NA,NA,html-keyboard-response,12,721006,0.0-12.0,0,computer,FALSE,sound_files/matthew_sales_short.mp3,hire-first,76,9221,62,4886.2,27,male,Laptop Speakers,no,I do not know,no,100,61,64,No,TRUE,156
NA,NA,html-keyboard-response,12,265266,0.0-12.0,7,human,TRUE,sound_files/human_sm_distort4.mp3,intel-first,69,12163,86,13082.6,55,female,External Speakers,None,How you make a decision about hiring someone based on an audio message by an applicant and their job experience.,I went by his voice and experience.,100,80,100,No,TRUE,157
NA,NA,html-keyboard-response,12,267056,0.0-12.0,4,human,FALSE,sound_files/human_sm_undistorted.mp3,hire-first,68,6027.8,76,3803.6,71,female,Headphones,No difficulties,"INot sure, please tell me.",Nothing,100,100,100,Yes,TRUE,158
NA,NA,html-keyboard-response,12,167045,0.0-12.0,3,computer,TRUE,sound_files/matthew_sales_short_distort4.mp3,intel-first,57,17140.8,66,17648.7,31,male,Laptop Speakers,no,hiring decision,no,83,75,92,No,TRUE,159
NA,NA,html-keyboard-response,12,181122,0.0-12.0,3,computer,TRUE,sound_files/matthew_sales_short_distort4.mp3,intel-first,77,2345.5,80,4054,44,male,Headphones,Everything worked fine,I am not sure,the voice sounded robotic and like AI,100,33,92,Yes,TRUE,160
NA,NA,html-keyboard-response,12,347952,0.0-12.0,4,human,FALSE,sound_files/human_sm_undistorted.mp3,hire-first,78,7915.6,89,2585.5,32,female,Headphones,No,How I perceive and make judgement of people from their speech.,no.,100,100,100,Yes,TRUE,161
NA,NA,html-keyboard-response,12,236689,0.0-12.0,2,computer,TRUE,sound_files/matthew_sales_short_distort4.mp3,hire-first,77,6688.5,68,2312.5,51,male,External Speakers,no,Whether or not this AI generated voice is convincing?,no,100,15,59,Yes,TRUE,162
NA,NA,html-keyboard-response,12,241922,0.0-12.0,7,human,TRUE,sound_files/human_sm_distort4.mp3,intel-first,94,8425.1,100,9258.1,51,female,Headphones,n/a,"Testing to see if you understood the audio and based on what you heard, would you hire the person.",n/a,100,75,100,Yes,TRUE,163
NA,NA,html-keyboard-response,12,236115,0.0-12.0,5,human,FALSE,sound_files/human_sm_undistorted.mp3,intel-first,62,6759.6,68,7948.3,53,male,Laptop Speakers,I did not.,I have no idea and wouldn't want to venture a guess.,There is not.,97,86,99,Yes,TRUE,164
NA,NA,html-keyboard-response,12,304485,0.0-12.0,6,human,TRUE,sound_files/human_sm_distort4.mp3,hire-first,88,7251,100,3786.2,37,male,Earbuds,The audio sounded muffled but that may have been intentional.,It was trying to test how audio voice affects the decision making of a person.,Jsut the audio quality.,100,10,100,Yes,TRUE,165
NA,NA,html-keyboard-response,12,396205,0.0-12.0,2,computer,TRUE,sound_files/matthew_sales_short_distort4.mp3,hire-first,0,8377,62,6204.3,55,female,Laptop Speakers,No,Robot voices?,No thanks,94,40,63,Yes,TRUE,166
NA,NA,html-keyboard-response,12,893580,0.0-12.0,7,human,TRUE,sound_files/human_sm_distort4.mp3,intel-first,86,2195,85,3076.7,46,male,Laptop Speakers,No,attention to listening,no,100,21,100,Yes,TRUE,167
NA,NA,html-keyboard-response,12,383472,0.0-12.0,3,computer,TRUE,sound_files/matthew_sales_short_distort4.mp3,intel-first,37,12359.8,74,20231.9,36,male,Headphones,No izzusz.,AI recorded resumes.,Thank you for the opportunity.,100,15,75,Yes,TRUE,168
NA,NA,html-keyboard-response,12,689083,0.0-12.0,7,human,TRUE,sound_files/human_sm_distort4.mp3,intel-first,91,14490,100,13403.5,40,female,Headphones,None,To gain individual perspectives regarding the person that is applying for the senior sales manager position.,None,100,78,100,Yes,TRUE,169
NA,NA,html-keyboard-response,12,284525,0.0-12.0,6,human,TRUE,sound_files/human_sm_distort4.mp3,hire-first,62,7299.7,71,6948.5,34,female,Laptop Speakers,no,making decision,none,95,60,65,Yes,TRUE,170
NA,NA,html-keyboard-response,12,157876,0.0-12.0,5,human,FALSE,sound_files/human_sm_undistorted.mp3,intel-first,61,3078,70,5052.8,51,male,Laptop Speakers,no,first impressions of someone just listening to their voice,no,100,93,100,No,TRUE,171
NA,NA,html-keyboard-response,12,168472,0.0-12.0,1,computer,FALSE,sound_files/matthew_sales_short.mp3,intel-first,0,2714.6,0,8228.2,50,female,Laptop Speakers,no,It might be about how people respond to AI content that they hear.,no,100,1,100,No,TRUE,172
NA,NA,html-keyboard-response,12,214837,0.0-12.0,5,human,FALSE,sound_files/human_sm_undistorted.mp3,intel-first,90,4097.7,93,5721.3,42,male,Headphones,No,How people evaluate the performance of speech in others.,There is nothing else that I'd like to add.,100,87,95,Yes,TRUE,173
NA,NA,html-keyboard-response,12,223060,0.0-12.0,1,computer,FALSE,sound_files/matthew_sales_short.mp3,intel-first,100,3713.4,100,9589.7,28,female,Headphones,no,really unsure maybe the pursaption of other how one person sees anather such as their voice,n/a,100,100,100,Yes,TRUE,174
NA,NA,html-keyboard-response,12,683914,0.0-12.0,1,computer,FALSE,sound_files/matthew_sales_short.mp3,intel-first,61,9334.3,76,40055.6,71,female,Laptop Speakers,No difficulties.,I think this study was testing my thoughts on the voice I listened to and whether the voice made a difference in how I felt about the person's intelligence and my willingness to hire them.,"There was one word of the recording at the very beginning that I wasn't sure I understood correctly when the person said, ""After eight years in sales..."". I think he said ""eight"" years but I am not positive.",100,86,98,Yes,TRUE,175
NA,NA,html-keyboard-response,12,189533,0.0-12.0,1,computer,FALSE,sound_files/matthew_sales_short.mp3,intel-first,70,7149,76,7301.9,61,female,Laptop Speakers,none,listening skills,no,100,70,99,Yes,TRUE,176
NA,NA,html-keyboard-response,12,161394,0.0-12.0,1,computer,FALSE,sound_files/matthew_sales_short.mp3,intel-first,100,3520.5,100,20900.4,36,male,Laptop Speakers,no,They want me to make a decision on hiring decision. They wanted to increase their sales volume and that's a great line to hear during an interview.,No,100,100,100,No,TRUE,177
NA,NA,html-keyboard-response,12,150665,0.0-12.0,4,human,FALSE,sound_files/human_sm_undistorted.mp3,hire-first,60,4884,70,2303,51,female,Headphones,no,How we perceive AI voices.,N/A,100,72,87,No,TRUE,178
NA,NA,html-keyboard-response,12,216000,0.0-12.0,0,computer,FALSE,sound_files/matthew_sales_short.mp3,hire-first,100,5857,100,5703,61,female,Laptop Speakers,no,It was testing my impressions and decision making regarding hiring a candidate for a senior sales manager position,I thought the recording was clear and the script was believable and well written to represent a strong candidate for a senior sales manager position,100,100,100,Yes,TRUE,179
NA,NA,html-keyboard-response,12,212588,0.0-12.0,2,computer,TRUE,sound_files/matthew_sales_short_distort4.mp3,hire-first,70,4011.3,80,5524.8,36,male,Headphones,N/A,I honestly don't know what the experiment was trying to determine.,N/A,100,40,95,Yes,TRUE,180
NA,NA,html-keyboard-response,12,192883,0.0-12.0,2,computer,TRUE,sound_files/matthew_sales_short_distort4.mp3,hire-first,22,5367.1,89,4446.2,55,female,Earbuds,None,How a voice application can affect job applicants.,The job applicant sounded like a robot and AI.,100,82,100,No,TRUE,181
NA,NA,html-keyboard-response,12,160836,0.0-12.0,3,computer,TRUE,sound_files/matthew_sales_short_distort4.mp3,intel-first,3,3227.5,85,7389.6,36,female,Laptop Speakers,No,To see how I felt about what someone said and how they sounded.,No,100,41,88,No,TRUE,182
NA,NA,html-keyboard-response,12,229275,0.0-12.0,5,human,FALSE,sound_files/human_sm_undistorted.mp3,intel-first,75,6278,81,8811,62,male,External Speakers,no,Hiring skills based on a 30 sec clip,none,95,95,100,Yes,TRUE,183
NA,NA,html-keyboard-response,12,171340,0.0-12.0,1,computer,FALSE,sound_files/matthew_sales_short.mp3,intel-first,4,5732.4,14,6114.1,57,female,Laptop Speakers,no,"I'm  not quite sure, but this sounded like a robot. That is the reason I wouldn't hire.",no,100,74,100,No,TRUE,184
NA,NA,html-keyboard-response,12,146190,0.0-12.0,3,computer,TRUE,sound_files/matthew_sales_short_distort4.mp3,intel-first,0,3616,68,8211,38,male,Headphones,None,To see if we thought it was AI and whether we'd hire AI.,Nothing,100,33,100,No,TRUE,185
NA,NA,html-keyboard-response,12,180431,0.0-12.0,5,human,FALSE,sound_files/human_sm_undistorted.mp3,intel-first,97,7550,98,8089,43,male,Laptop Speakers,no,Perception of a job applicant.,none,100,81,99,No,TRUE,186
NA,NA,html-keyboard-response,12,152241,0.0-12.0,5,human,FALSE,sound_files/human_sm_undistorted.mp3,intel-first,100,2755.8,79,5297.9,31,male,Laptop Speakers,None,How I feel about a potential hire,none,100,100,100,No,TRUE,187
NA,NA,html-keyboard-response,12,201551,0.0-12.0,7,human,TRUE,sound_files/human_sm_distort4.mp3,intel-first,89,4102.8,89,5112.5,25,male,Laptop Speakers,no,I think it was to test if we would hire someone based on their audio resume with low quality audio,N/A,90,31,78,No,TRUE,188
NA,NA,html-keyboard-response,12,153204,0.0-12.0,2,computer,TRUE,sound_files/matthew_sales_short_distort4.mp3,hire-first,55,4903.4,77,4506.5,52,female,Headphones,No issues,Not sure perhaps how people perceive automated sounding voices.,Not that I can think of,100,25,74,No,TRUE,189
NA,NA,html-keyboard-response,12,129502,0.0-12.0,0,computer,FALSE,sound_files/matthew_sales_short.mp3,hire-first,59,5682.3,58,2039.5,43,male,Headphones,none,viewpoint of the message of the candidate. whether it was convincing or notl,seemed robotic,100,40,88,Yes,TRUE,190
NA,NA,html-keyboard-response,12,271238,0.0-12.0,1,computer,FALSE,sound_files/matthew_sales_short.mp3,intel-first,75,6734.2,76,11924,66,male,External Speakers,no,reactions to a robotic voice,no,100,85,100,Yes,TRUE,191
NA,NA,html-keyboard-response,12,194999,0.0-12.0,2,computer,TRUE,sound_files/matthew_sales_short_distort4.mp3,hire-first,29,12457.1,33,4393.7,35,male,Headphones,no,my hearing,I thought it was a computer voice,100,9,66,Yes,TRUE,192
NA,NA,html-keyboard-response,12,241671,0.0-12.0,6,human,TRUE,sound_files/human_sm_distort4.mp3,hire-first,81,4594.3,92,2727.7,23,female,Headphones,no,How intelligant we think someone is based on how they speak.,no,100,39,76,No,TRUE,193
NA,NA,html-keyboard-response,12,158459,0.0-12.0,1,computer,FALSE,sound_files/matthew_sales_short.mp3,intel-first,87,3487.8,73,7180.9,24,other,Laptop Speakers,no,If text vs spoken word changes our interpretation of others,no,100,88,100,No,TRUE,194
NA,NA,html-keyboard-response,12,219089,0.0-12.0,5,human,FALSE,sound_files/human_sm_undistorted.mp3,intel-first,66,2668.7,72,19620,42,male,Headphones,none,My perception of potential candidates for a competitive position.,none,100,100,100,No,TRUE,195
NA,NA,html-keyboard-response,12,289616,0.0-12.0,2,computer,TRUE,sound_files/matthew_sales_short_distort4.mp3,hire-first,85,5282.9,100,7706.2,57,female,Laptop Speakers,no,AI assisted application,The voice recording could be slower for better recognition,100,65,100,No,TRUE,196
NA,NA,html-keyboard-response,12,294125,0.0-12.0,4,human,FALSE,sound_files/human_sm_undistorted.mp3,hire-first,84,9645.9,76,6119.2,75,female,Laptop Speakers,No,"I wonder if you are testing people's reactions to another person's voice and opposed to what that voice actually says. This fellow seems smart and motivated, but his voice sounds unanimated or flat -",No,100,92,100,Yes,TRUE,197
NA,NA,html-keyboard-response,12,437456,0.0-12.0,6,human,TRUE,sound_files/human_sm_distort4.mp3,hire-first,77,43902.3,60,6781.1,45,male,Earbuds,none,Testing how participant rate people based on voice and emotion,none,100,75,86,Yes,TRUE,198
NA,NA,html-keyboard-response,12,237598,0.0-12.0,5,human,FALSE,sound_files/human_sm_undistorted.mp3,intel-first,89,6934.8,86,6149.3,50,male,External Speakers,no,i guess my opinion about what a person says and how it fits the job they are applying for at the company. If a person sounding confidant makes a difference,i had zero issues,100,100,100,Yes,TRUE,199
NA,NA,html-keyboard-response,12,197650,0.0-12.0,0,computer,FALSE,sound_files/matthew_sales_short.mp3,hire-first,88,21414.5,93,6081.5,50,male,Laptop Speakers,NONE,JUDGING JOB CANDIDATES USING AI?,NO,100,80,98,Yes,TRUE,200
NA,NA,html-keyboard-response,12,538656,0.0-12.0,7,human,TRUE,sound_files/human_sm_distort4.mp3,intel-first,99,10293.4,95,11824.4,32,female,Headphones,No,How a personal statement could influence a hiring decision.,No,100,65,100,Yes,TRUE,201
NA,NA,html-keyboard-response,12,260185,0.0-12.0,1,computer,FALSE,sound_files/matthew_sales_short.mp3,intel-first,41,5683,49,9456.2,48,female,External Speakers,No issues or distractions.,Perceptions of job candidates,The computerized voice didn't help the applicant as the answers seemed a little robotic to begin with.,100,35,95,Yes,TRUE,202
NA,NA,html-keyboard-response,12,404454,0.0-12.0,3,computer,TRUE,sound_files/matthew_sales_short_distort4.mp3,intel-first,97,3710.1,100,9588.8,37,male,Headphones,No issues,How people perceive others based on how they sound.,N/A,100,63,100,Yes,TRUE,203
NA,NA,html-keyboard-response,12,227105,0.0-12.0,6,human,TRUE,sound_files/human_sm_distort4.mp3,hire-first,79,18978.7,77,9052.8,68,female,Headphones,No,Perception of intelligence compared to bad/good sound? I don't know really.,No,100,23,100,Yes,TRUE,204
NA,NA,html-keyboard-response,12,202657,0.0-12.0,3,computer,TRUE,sound_files/matthew_sales_short_distort4.mp3,intel-first,80,5558,86,7244.8,51,female,Headphones,NO,HIRING,NO,88,41,61,Yes,TRUE,205
NA,NA,html-keyboard-response,12,176034,0.0-12.0,3,computer,TRUE,sound_files/matthew_sales_short_distort4.mp3,intel-first,54,2652.8,78,7330.7,41,male,Headphones,no,How people sound confident (or not) in job interviews.,no,100,18,62,Yes,TRUE,206
NA,NA,html-keyboard-response,12,161904,0.0-12.0,4,human,FALSE,sound_files/human_sm_undistorted.mp3,hire-first,64,14529.9,74,3585.8,45,female,External Speakers,no,How we decide who to hire based on what they say and how they come across.,no,98,80,94,Yes,TRUE,207
NA,NA,html-keyboard-response,12,193442,0.0-12.0,4,human,FALSE,sound_files/human_sm_undistorted.mp3,hire-first,62,4044.5,62,2734.1,39,female,Headphones,no,This experiment was testing how people  form impres sions of job appliicants based on shot personal statements,no,100,100,100,Yes,TRUE,208
NA,NA,html-keyboard-response,12,247680,0.0-12.0,5,human,FALSE,sound_files/human_sm_undistorted.mp3,intel-first,62,9106.7,64,6610.2,38,female,Laptop Speakers,no,Unsure but I think it has to do with our perceptions of something about the voice used or something it said.,none,76,90,100,Yes,TRUE,209
NA,NA,html-keyboard-response,12,331141,0.0-12.0,1,computer,FALSE,sound_files/matthew_sales_short.mp3,intel-first,66,8710.9,71,17183.8,36,male,External Speakers,No issues,I think maybe it was testing how smart or confident the voice was based on what they said in their interview and how they phrased what they were saying and how likely we would be to hire them.,The voice did sound robotic to me.,100,63,60,Yes,TRUE,210
NA,NA,html-keyboard-response,12,160009,0.0-12.0,5,human,FALSE,sound_files/human_sm_undistorted.mp3,intel-first,85,1934.8,93,3347.9,26,male,Headphones,"no issues at all, thanks!",What my thoughts are on the candidate. if he would be a good fit based on all his experience.,"no issues, thanks! sounds like a really smart person.",100,91,96,No,TRUE,211
NA,NA,html-keyboard-response,12,261271,0.0-12.0,5,human,FALSE,sound_files/human_sm_undistorted.mp3,intel-first,69,2748,83,9931.8,28,male,Headphones,No,It was about an event through audio and how I felt,no,89,77,93,Yes,TRUE,212
NA,NA,html-keyboard-response,12,1607613,0.0-12.0,3,computer,TRUE,sound_files/matthew_sales_short_distort4.mp3,intel-first,78,1894.1,84,204930,24,male,Laptop Speakers,No,It was testing how does one determine how smart someone is from one statement.,No,1,84,88,No,TRUE,213
NA,NA,html-keyboard-response,12,168317,0.0-12.0,6,human,TRUE,sound_files/human_sm_distort4.mp3,hire-first,72,7414,89,5511,67,female,Laptop Speakers,no difficulties,I don't know  what the experiment was testing.,"No, there's not.",100,76,100,No,TRUE,214
NA,NA,html-keyboard-response,12,135974,0.0-12.0,5,human,FALSE,sound_files/human_sm_undistorted.mp3,intel-first,65,2488.7,67,2983.4,31,male,Headphones,No.,How we judge the voice/accent and wording of what someone is saying.,No.,100,98,95,No,TRUE,215
NA,NA,html-keyboard-response,12,180331,0.0-12.0,0,computer,FALSE,sound_files/matthew_sales_short.mp3,hire-first,43,5727.1,75,4131.6,61,female,Laptop Speakers,No,If I would be affected by the audio being AI.,Nothing further.,100,56,100,Yes,TRUE,216
NA,NA,html-keyboard-response,12,150978,0.0-12.0,0,computer,FALSE,sound_files/matthew_sales_short.mp3,hire-first,72,7078.4,79,2865,52,female,Laptop Speakers,No,If I would hire the candidate on the audio,No,100,66,94,No,TRUE,217
NA,NA,html-keyboard-response,12,417373,0.0-12.0,7,human,TRUE,sound_files/human_sm_distort4.mp3,intel-first,71,6270.6,79,81234.4,58,female,Headphones,no,To see if someone's voice or tone would affect your opinion for hiring them and their intelligence,no,100,76,95,No,TRUE,218
NA,NA,html-keyboard-response,12,175002,0.0-12.0,7,human,TRUE,sound_files/human_sm_distort4.mp3,intel-first,73,3065.2,87,6194.9,42,female,Laptop Speakers,no,Ability to make hiring decisions with little information,no,100,45,100,Yes,TRUE,219
NA,NA,html-keyboard-response,12,641913,0.0-12.0,7,human,TRUE,sound_files/human_sm_distort4.mp3,intel-first,87,9780.8,96,26402.2,78,female,Laptop Speakers,no. I heard it clearly,maybe testing to see if AI sounded like a real person. it sounded like AI to me,no,100,76,99,No,TRUE,220
NA,NA,html-keyboard-response,12,400115,0.0-12.0,4,human,FALSE,sound_files/human_sm_undistorted.mp3,hire-first,61,21644.1,85,11826,65,female,Laptop Speakers,No difficulties,You may have been checking to see if the applicant's choice of vocabulary was off-putting.,I'm a former English teacher.,84,78,92,No,TRUE,221
NA,NA,html-keyboard-response,12,413643,0.0-12.0,2,computer,TRUE,sound_files/matthew_sales_short_distort4.mp3,hire-first,82,6539.7,76,4355.5,46,female,Laptop Speakers,No I have not experienced any difficulties.,I think it was testing to see how we listen to an audio.,Not that I know of.,100,38,93,No,TRUE,222
NA,NA,html-keyboard-response,12,182092,0.0-12.0,3,computer,TRUE,sound_files/matthew_sales_short_distort4.mp3,intel-first,97,3000.3,98,4080.2,25,male,Headphones,No,I think this is testing how managers judge job applicants,no,100,23,63,Yes,TRUE,223
NA,NA,html-keyboard-response,12,158661,0.0-12.0,0,computer,FALSE,sound_files/matthew_sales_short.mp3,hire-first,53,7354.1,44,4351.5,51,male,Headphones,no,if speeech patterns impact hireability,the audio went really fast,90,26,60,Yes,TRUE,224
NA,NA,html-keyboard-response,12,319653,0.0-12.0,7,human,TRUE,sound_files/human_sm_distort4.mp3,intel-first,72,15668,86,13962,37,male,Earbuds,No,The conduct and therefore quality of audible statements in determining judgments about a person during a hiring situation.,None,99,44,100,No,TRUE,225
NA,NA,html-keyboard-response,12,233988,0.0-12.0,4,human,FALSE,sound_files/human_sm_undistorted.mp3,hire-first,51,7770.2,83,6484.8,63,female,External Speakers,No.,The effect of words and their tone upon judgement rather than in combination with visual appearance.,"No, thank you",95,100,100,No,TRUE,226
NA,NA,html-keyboard-response,12,390275,0.0-12.0,7,human,TRUE,sound_files/human_sm_distort4.mp3,intel-first,36,1961.6,44,46975.5,28,female,Laptop Speakers,no,Assessing the tone of a coworker,non,100,59,88,Yes,TRUE,227
NA,NA,html-keyboard-response,12,223614,0.0-12.0,7,human,TRUE,sound_files/human_sm_distort4.mp3,intel-first,63,6789.4,72,6664.9,27,male,Laptop Speakers,No difficulties,Perception of others by just hearing them out,None,100,90,100,No,TRUE,228
NA,NA,html-keyboard-response,12,267103,0.0-12.0,5,human,FALSE,sound_files/human_sm_undistorted.mp3,intel-first,97,2472.3,97,4082.6,22,female,Headphones,No.,I think it was testing people perceptions of candidates of jobs based on their responses and if they think that candidate would be a good fit.,"I thought the study was pretty simple to understand. The candidate in the recording seemed to be a pretty fast talker which is okay, but may have to slow it down for some.",100,90,95,No,TRUE,229
NA,NA,html-keyboard-response,12,171457,0.0-12.0,1,computer,FALSE,sound_files/matthew_sales_short.mp3,intel-first,66,3202.5,79,2346.2,29,male,Headphones,none,The perception of the applicant for the job and bias against his voice,none,100,97,100,Yes,TRUE,230
NA,NA,html-keyboard-response,12,695714,0.0-12.0,0,computer,FALSE,sound_files/matthew_sales_short.mp3,hire-first,4,11092.7,36,4560.6,36,male,Headphones,no,Affect AI readouts have on people in charge of hiring decisions.,no,96,58,96,Yes,TRUE,231
NA,NA,html-keyboard-response,12,172960,0.0-12.0,6,human,TRUE,sound_files/human_sm_distort4.mp3,hire-first,67,4734,100,3576.1,32,female,Laptop Speakers,No issues,To see how a person's voice affects intention to hire that person,N/A,100,73,92,No,TRUE,232
NA,NA,html-keyboard-response,12,302644,0.0-12.0,6,human,TRUE,sound_files/human_sm_distort4.mp3,hire-first,53,3051.2,60,2112.4,37,male,Headphones,None.,My perception of a candidate applying for Senior Sales Manager Post.,None.,100,83,100,Yes,TRUE,233
NA,NA,html-keyboard-response,12,226538,0.0-12.0,7,human,TRUE,sound_files/human_sm_distort4.mp3,intel-first,58,2155.1,70,120331.4,26,female,Headphones,no,hearing,no,100,100,100,Yes,TRUE,234
NA,NA,html-keyboard-response,12,314564,0.0-12.0,3,computer,TRUE,sound_files/matthew_sales_short_distort4.mp3,intel-first,68,3416.8,68,5977.7,58,female,Headphones,no,How confident someone may sound when applying for a new job or new position in a current company.,no,89,23,67,No,TRUE,235
NA,NA,html-keyboard-response,12,147017,0.0-12.0,5,human,FALSE,sound_files/human_sm_undistorted.mp3,intel-first,87,5939.5,96,4756.9,52,female,External Speakers,no,I am not sure,NA,100,100,100,Yes,TRUE,236
NA,NA,html-keyboard-response,12,164434,0.0-12.0,1,computer,FALSE,sound_files/matthew_sales_short.mp3,intel-first,59,3023,75,4430,28,female,Headphones,"No, everything went well.",I think this experiment was testing how we would feel about someone using text to speech instead of their real voice.,N/A,100,100,100,No,TRUE,237
NA,NA,html-keyboard-response,12,137803,0.0-12.0,0,computer,FALSE,sound_files/matthew_sales_short.mp3,hire-first,89,4093.5,82,5056.5,47,female,Laptop Speakers,no,Impressions of people based on their voice alone,no,100,70,84,No,TRUE,238
NA,NA,html-keyboard-response,12,195857,0.0-12.0,6,human,TRUE,sound_files/human_sm_distort4.mp3,hire-first,78,19274.7,71,5145,53,male,External Speakers,Everything was good,If I could be talked into hiring ...,no,100,50,100,Yes,TRUE,239
NA,NA,html-keyboard-response,12,441372,0.0-12.0,7,human,TRUE,sound_files/human_sm_distort4.mp3,intel-first,69,3193.1,79,3882.5,35,male,Headphones,N/A,Perception of evaluating a candidate through audio means as opposed to a text-derived resume or cover letter.,N/A,100,40,94,Yes,TRUE,240
NA,NA,html-keyboard-response,12,330041,0.0-12.0,1,computer,FALSE,sound_files/matthew_sales_short.mp3,intel-first,70,2981,80,4860,35,male,Laptop Speakers,none,First impressions of a potential hire.,None.,100,94,100,Yes,TRUE,241
NA,NA,html-keyboard-response,12,209253,0.0-12.0,7,human,TRUE,sound_files/human_sm_distort4.mp3,intel-first,89,15778.1,84,8489.4,46,female,Headphones,No,"It was testing what managers think of applicants, and whether they would hire them or not.",No,100,67,100,Yes,TRUE,242
NA,NA,html-keyboard-response,12,443131,0.0-12.0,6,human,TRUE,sound_files/human_sm_distort4.mp3,hire-first,89,6772.3,99,5201.8,73,female,Laptop Speakers,no,I think it was testing participant perception of and accuracy of traits in an unknown individual by listening to them speak about themselves,no,100,24,100,No,TRUE,243
NA,NA,html-keyboard-response,12,285675,0.0-12.0,0,computer,FALSE,sound_files/matthew_sales_short.mp3,hire-first,60,15146.6,63,4724.7,44,male,Headphones,no issues,Whether or not we are listening intently.,no further information,100,100,100,Yes,TRUE,244
NA,NA,html-keyboard-response,12,1400392,0.0-12.0,0,computer,FALSE,sound_files/matthew_sales_short.mp3,hire-first,96,53735.5,96,11787.6,40,female,Laptop Speakers,No,To see if people will hire an applicant based on how the sound.,No,100,94,100,No,TRUE,245
NA,NA,html-keyboard-response,12,195655,0.0-12.0,0,computer,FALSE,sound_files/matthew_sales_short.mp3,hire-first,49,6404.4,53,7693.6,48,male,Laptop Speakers,NO,How AI generated speech can be used to interview and read a resume.,None,87,24,82,Yes,TRUE,246
NA,NA,html-keyboard-response,12,211140,0.0-12.0,0,computer,FALSE,sound_files/matthew_sales_short.mp3,hire-first,63,10658,62,3409.9,38,male,Headphones,no i did not,Judging a resume insert.,nothing,100,47,44,No,TRUE,247
NA,NA,html-keyboard-response,12,262195,0.0-12.0,6,human,TRUE,sound_files/human_sm_distort4.mp3,hire-first,74,4869,79,6408.8,23,female,Laptop Speakers,No,I think this experiment may have been trsting peoples opinions based on voice for the specifc task assigned.,None. Thank you!,100,32,86,No,TRUE,248
