stimulus,key_press,trial_type,trial_index,time_elapsed,internal_node_id,condition,voice_type,distorted_audio,sound_file,question_order,hire,hire_rt,intelligence,intelligence_rt,debrief_age,debrief_gender,debrief_audio_output,debrief_audio_problems,debrief_testing,debrief_other,debrief_attention,debrief_audio_quality,debrief_understandable,debrief_hire_exp,data_summary
NA,NA,html-keyboard-response,12,335538,0.0-12.0,1,computer,FALSE,sound_files/matthew_sales_short.mp3,intel-first,94,3213.9,90,11062.1,27,male,Headphones,No issues,I think this experiment was testing my reaction to someone looking for a job.,Nothing else,100,95,100,Yes,TRUE
"""success"",""timeout"",""failed_images"",""failed_audio"",""failed_video"",""trial_type"",""trial_index"",""time_elapsed"",""internal_node_id"",""subject"",""prolific_study_id"",""prolific_session_id"",""rt"",""stimulus"",""button_pressed"",""test_part"",""mobile"",""key_press"",""view_history"",""trial_part"",""responses"",""aud_check"",""pointer_error"",""pointer_redo"",""response"",""question"",""age"",""gender"",""audio_output"",""audio_problems"",""testing"",""other"",""attention"",""block_data"",""audio_quality"",""understandable"",""hire_exp"",""condition"",""voice_type"",""distorted_audio"",""sound_file"",""question_order"",""hire"",""hire_rt"",""hire_values"",""hire_rts"",""intelligence"",""intelligence_rt"",""intelligence_values"",""intelligence_rts"",""debrief_age"",""debrief_gender"",""debrief_audio_output"",""debrief_audio_problems"",""debrief_testing"",""debrief_other"",""debrief_attention"",""debrief_audio_quality"",""debrief_understandable"",""debrief_hire_exp"",""data_summary"",""participant_id""
""true"",""false"",""[]"",""[]"",""[]"",""preload"",""0"",""282"",""0.0-0.0"",""66594968a8fca6ea85c9ac19"",""691f64b829bcd04aca23171c"",""692109dc74408868a69de443"","""","""","""","""","""","""","""","""","""","""","""","""","""","""","""","""","""","""","""","""","""","""","""","""","""","""","""","""","""","""","""","""","""","""","""","""","""","""","""","""","""","""","""","""","""","""","""","""","""",""""
"""","""","""","""","""",""html-button-response"",""1"",""131838"",""0.0-1.0"",""66594968a8fca6ea85c9ac19"",""691f64b829bcd04aca23171c"",""692109dc74408868a69de443"",""131555.30000000075"",""Please note that this experiment is only designed to work from a computer or laptop.  Please <strong> do not </strong> continue if you are using a phone, tablet, or other mobile device.  If you are on a phone, tablet or other mobile device you will need to return to prolific <br>and click """"stop without completing"""".  <br> <br> If you are currently seeing this page from a laptop or computer, please click on the 'Continue' button.<br><br>"",""0"",""check_device"",""false"","""","""","""","""","""","""","""","""","""","""","""","""","""","""","""","""","""","""","""","""","""","""","""","""","""","""","""","""","""","""","""","""","""","""","""","""","""","""","""","""","""","""","""","""",""""
"""","""","""","""","""",""html-keyboard-response"",""2"",""136516"",""0.0-2.0"",""66594968a8fca6ea85c9ac19"",""691f64b829bcd04aca23171c"",""692109dc74408868a69de443"",""4675.5"",""<div style = 'font-size: .9vw; line-height: 1vw;'><h1>By answering the following questions, you are participating in a study being performed by cognitive scientists in the Stanford Department of Psychology.<br> <br><strong>***Please Read and press the 'Y' key to consent to this study*** </strong> </h1><h4>Consent for Participation in a Research Study</h4><div style='width: 100%; text-align: center'><div style='display: inline-block; margin: 0 auto; padding: 2vh 5vw; text-align: left'><h2>STUDY TITLE</h2><p>Perceiving Objects and Events</p><h2>RESEARCH STUDY SUMMARY, RISKS, AND BENEFITS</h2><p>Thank you for volunteering to participate in this research study. The purpose of this study is to better understand how we see and how we think. Study activities will include examining simple displays and then responding by answering questions, pressing some keys, or using a computer mouse. Because these are activities that many people already experience hundreds or thousands of times every day, there are no risks involved in this study. The study may have no benefits to you, but it may help the scientific community come to better understand how the human mind works. You must be at least 18 years old to participate. Your participation in this research is voluntary. You may decline to answer any or all of the following questions. You may decline further participation, at any time, without adverse consequences.</p><h2>DURATION</h2><p>If you agree to take part, the study will last approximately <strong>4 minutes</strong>.</p><h2>COSTS AND COMPENSATION</h2><p>There are no costs associated with participation in this study. You will receive <strong>$0.54</strong> for participating.</p><h1>CONFIDENTIALITY</h1><p>Your anonymity is assured; the researchers who have requested your participation will not receive any personal information about you.</p><h2>LEARNING MORE</h2><p>If you have questions about this research, please contact us at stanfordpsych251@gmail.com.</p><h2>INFORMED CONSENT</h2><p>Your participation indicates that you have read and understood this consent form and the information presented and that you agree to be in this study.</p></div></div> </div>"","""",""consent"","""",""y"","""","""","""","""","""","""","""","""","""","""","""","""","""","""","""","""","""","""","""","""","""","""","""","""","""","""","""","""","""","""","""","""","""","""","""","""","""","""","""","""","""","""","""",""""
"""","""","""","""","""",""instructions"",""3"",""186990"",""0.0-3.0"",""66594968a8fca6ea85c9ac19"",""691f64b829bcd04aca23171c"",""692109dc74408868a69de443"",""50472.300000000745"","""","""","""","""","""",""[{""""page_index"""":0,""""viewing_time"""":35430.20000000112},{""""page_index"""":1,""""viewing_time"""":15041.699999999255}]"",""instructions1"","""","""","""","""","""","""","""","""","""","""","""","""","""","""","""","""","""","""","""","""","""","""","""","""","""","""","""","""","""","""","""","""","""","""","""","""","""","""","""","""","""",""""
"""","""","""","""","""",""audio_response"",""4"",""203993"",""0.0-4.0"",""66594968a8fca6ea85c9ac19"",""691f64b829bcd04aca23171c"",""692109dc74408868a69de443"",""203997.1000000015"","""","""","""","""","""","""","""",""{""""aud_check"""":""""Strawberries""""}"",""Strawberries"","""","""","""","""","""","""","""","""","""","""","""","""","""","""","""","""","""","""","""","""","""","""","""","""","""","""","""","""","""","""","""","""","""","""","""","""","""","""","""",""""
"""","""","""","""","""",""fullscreen"",""5"",""216807"",""0.0-6.0"",""66594968a8fca6ea85c9ac19"",""691f64b829bcd04aca23171c"",""692109dc74408868a69de443"","""","""","""","""","""","""","""","""","""","""",""false"",""false"","""","""","""","""","""","""","""","""","""","""","""","""","""","""","""","""","""","""","""","""","""","""","""","""","""","""","""","""","""","""","""","""","""","""","""","""","""",""""
"""","""","""","""","""",""instructions"",""6"",""237708"",""0.0-7.0"",""66594968a8fca6ea85c9ac19"",""691f64b829bcd04aca23171c"",""692109dc74408868a69de443"",""20899.599999999627"","""","""","""","""","""",""[{""""page_index"""":0,""""viewing_time"""":20899.400000000373}]"",""instructions1"","""","""","""","""","""","""","""","""","""","""","""","""","""","""","""","""","""","""","""","""","""","""","""","""","""","""","""","""","""","""","""","""","""","""","""","""","""","""","""","""","""",""""
"""","""","""","""","""",""audio_response"",""7"",""269032"",""0.0-8.0"",""66594968a8fca6ea85c9ac19"",""691f64b829bcd04aca23171c"",""692109dc74408868a69de443"","""","""","""","""","""","""","""","""","""","""","""","""","""","""","""","""","""","""","""","""","""","""","""","""","""","""","""","""","""","""","""","""","""","""","""","""","""","""","""","""","""","""","""","""","""","""","""","""","""",""""
"""","""","""","""","""",""html-slider-response"",""8"",""280098"",""0.0-9.0-0.0"",""66594968a8fca6ea85c9ac19"",""691f64b829bcd04aca23171c"",""692109dc74408868a69de443"",""11062.099999999627"",""<p>Based on the personal statement you just heard, please answer the following question using the slider below.<br>(You can click on the appropriate part of the white bar, or drag the blue circle to the appropriate place.) <br><br><b>How intelligent is the author of this personal statement?</b></p><br>"","""","""","""","""","""",""follow_ups"","""","""","""","""",""90"",""intelligence"","""","""","""","""","""","""","""","""","""","""","""","""","""","""","""","""","""","""","""","""","""","""","""","""","""","""","""","""","""","""","""","""","""","""","""",""""
"""","""","""","""","""",""html-slider-response"",""9"",""283313"",""0.0-9.0-0.1"",""66594968a8fca6ea85c9ac19"",""691f64b829bcd04aca23171c"",""692109dc74408868a69de443"",""3213.89999999851"",""<p>Based on the personal statement you just heard, please answer the following question using the slider below. .<br>(You can click on the appropriate part of the white bar, or drag the blue circle to the appropriate place.) <br><br><b>What is the likelihood that you would hire this person?</b></p><br>"","""","""","""","""","""",""follow_ups"","""","""","""","""",""94"",""hire"","""","""","""","""","""","""","""","""","""","""","""","""","""","""","""","""","""","""","""","""","""","""","""","""","""","""","""","""","""","""","""","""","""","""","""",""""
"""","""","""","""","""",""survey-html-form"",""10"",""318321"",""0.0-10.0"",""66594968a8fca6ea85c9ac19"",""691f64b829bcd04aca23171c"",""692109dc74408868a69de443"",""35006.59999999963"","""","""","""","""","""","""",""debrief"",""{""""age"""":""""27"""",""""gender"""":""""male"""",""""audio_output"""":""""Headphones"""",""""testing"""":""""I think this experiment was testing my reaction to someone looking for a job."""",""""audio_problems"""":""""No issues"""",""""attention"""":""""100""""}"","""","""","""","""","""",""27"",""male"",""Headphones"",""No issues"",""I think this experiment was testing my reaction to someone looking for a job."","""",""100"",""true"","""","""","""","""","""","""","""","""","""","""","""","""","""","""","""","""","""","""","""","""","""","""","""","""","""","""","""",""""
"""","""","""","""","""",""survey-html-form"",""11"",""335487"",""0.0-11.0"",""66594968a8fca6ea85c9ac19"",""691f64b829bcd04aca23171c"",""692109dc74408868a69de443"",""17165.5"","""","""","""","""","""","""",""debrief2"",""{""""hire_exp"""":""""Yes"""",""""audio_quality"""":""""95"""",""""understandable"""":""""100"""",""""other"""":""""Nothing else""""}"","""","""","""","""","""","""","""","""","""","""",""Nothing else"","""","""",""95"",""100"",""Yes"","""","""","""","""","""","""","""","""","""","""","""","""","""","""","""","""","""","""","""","""","""","""","""","""",""""
"""","""","""","""","""",""html-keyboard-response"",""12"",""335538"",""0.0-12.0"",""66594968a8fca6ea85c9ac19"",""691f64b829bcd04aca23171c"",""692109dc74408868a69de443"",""null"","""","""","""","""",""null"","""","""","""","""","""","""","""","""","""","""","""","""","""","""","""","""","""","""","""",""1"",""computer"",""false"",""sound_files/matthew_sales_short.mp3"",""intel-first"",""94"",""3213.89999999851"","""","""",""90"",""11062.099999999627"","""","""",""27"",""male"",""Headphones"",""No issues"",""I think this experiment was testing my reaction to someone looking for a job."",""Nothing else"",""100"",""95"",""100"",""Yes"",""true"",""66594968a8fca6ea85c9ac19_comp_hire_summary""
"""","""","""","""","""",""html-keyboard-response"",""13"",""338555"",""0.0-13.0"",""66594968a8fca6ea85c9ac19"",""691f64b829bcd04aca23171c"",""692109dc74408868a69de443"",""null"",""Saving data ... One moment please..."","""","""","""",""null"","""","""","""","""","""","""","""","""","""","""","""","""","""","""","""","""","""","""","""","""","""","""","""","""","""","""","""","""","""","""","""","""","""","""","""","""","""","""","""","""","""","""","""",""""
",NA,NA,NA,NA,NA,NA,NA,NA,NA,NA,NA,NA,NA,NA,NA,NA,NA,NA,NA,NA,NA,NA,NA,NA,NA
NA,NA,html-keyboard-response,12,456970,0.0-12.0,0,computer,FALSE,sound_files/matthew_sales_short.mp3,hire-first,100,6684.2,100,4917,39,male,Laptop Speakers,NA,The experiment was testing on hiring qualities that one would consider when hiring a sales manager.,NA,100,100,100,Yes,TRUE
"""success"",""timeout"",""failed_images"",""failed_audio"",""failed_video"",""trial_type"",""trial_index"",""time_elapsed"",""internal_node_id"",""subject"",""prolific_study_id"",""prolific_session_id"",""rt"",""stimulus"",""button_pressed"",""test_part"",""mobile"",""key_press"",""view_history"",""trial_part"",""responses"",""aud_check"",""pointer_error"",""pointer_redo"",""response"",""question"",""age"",""gender"",""audio_output"",""audio_problems"",""testing"",""other"",""attention"",""block_data"",""audio_quality"",""understandable"",""hire_exp"",""condition"",""voice_type"",""distorted_audio"",""sound_file"",""question_order"",""hire"",""hire_rt"",""hire_values"",""hire_rts"",""intelligence"",""intelligence_rt"",""intelligence_values"",""intelligence_rts"",""debrief_age"",""debrief_gender"",""debrief_audio_output"",""debrief_audio_problems"",""debrief_testing"",""debrief_other"",""debrief_attention"",""debrief_audio_quality"",""debrief_understandable"",""debrief_hire_exp"",""data_summary"",""participant_id""
""true"",""false"",""[]"",""[]"",""[]"",""preload"",""0"",""1390"",""0.0-0.0"",""67de0c86edec4b1fb38789b8"",""691f64b829bcd04aca23171c"",""69210ffa70d05dcadb247316"","""","""","""","""","""","""","""","""","""","""","""","""","""","""","""","""","""","""","""","""","""","""","""","""","""","""","""","""","""","""","""","""","""","""","""","""","""","""","""","""","""","""","""","""","""","""","""","""","""",""""
"""","""","""","""","""",""html-button-response"",""1"",""10487"",""0.0-1.0"",""67de0c86edec4b1fb38789b8"",""691f64b829bcd04aca23171c"",""69210ffa70d05dcadb247316"",""9094.79999999702"",""Please note that this experiment is only designed to work from a computer or laptop.  Please <strong> do not </strong> continue if you are using a phone, tablet, or other mobile device.  If you are on a phone, tablet or other mobile device you will need to return to prolific <br>and click """"stop without completing"""".  <br> <br> If you are currently seeing this page from a laptop or computer, please click on the 'Continue' button.<br><br>"",""0"",""check_device"",""false"","""","""","""","""","""","""","""","""","""","""","""","""","""","""","""","""","""","""","""","""","""","""","""","""","""","""","""","""","""","""","""","""","""","""","""","""","""","""","""","""","""","""","""","""",""""
"""","""","""","""","""",""html-keyboard-response"",""2"",""18532"",""0.0-2.0"",""67de0c86edec4b1fb38789b8"",""691f64b829bcd04aca23171c"",""69210ffa70d05dcadb247316"",""8042.10000000149"",""<div style = 'font-size: .9vw; line-height: 1vw;'><h1>By answering the following questions, you are participating in a study being performed by cognitive scientists in the Stanford Department of Psychology.<br> <br><strong>***Please Read and press the 'Y' key to consent to this study*** </strong> </h1><h4>Consent for Participation in a Research Study</h4><div style='width: 100%; text-align: center'><div style='display: inline-block; margin: 0 auto; padding: 2vh 5vw; text-align: left'><h2>STUDY TITLE</h2><p>Perceiving Objects and Events</p><h2>RESEARCH STUDY SUMMARY, RISKS, AND BENEFITS</h2><p>Thank you for volunteering to participate in this research study. The purpose of this study is to better understand how we see and how we think. Study activities will include examining simple displays and then responding by answering questions, pressing some keys, or using a computer mouse. Because these are activities that many people already experience hundreds or thousands of times every day, there are no risks involved in this study. The study may have no benefits to you, but it may help the scientific community come to better understand how the human mind works. You must be at least 18 years old to participate. Your participation in this research is voluntary. You may decline to answer any or all of the following questions. You may decline further participation, at any time, without adverse consequences.</p><h2>DURATION</h2><p>If you agree to take part, the study will last approximately <strong>4 minutes</strong>.</p><h2>COSTS AND COMPENSATION</h2><p>There are no costs associated with participation in this study. You will receive <strong>$0.54</strong> for participating.</p><h1>CONFIDENTIALITY</h1><p>Your anonymity is assured; the researchers who have requested your participation will not receive any personal information about you.</p><h2>LEARNING MORE</h2><p>If you have questions about this research, please contact us at stanfordpsych251@gmail.com.</p><h2>INFORMED CONSENT</h2><p>Your participation indicates that you have read and understood this consent form and the information presented and that you agree to be in this study.</p></div></div> </div>"","""",""consent"","""",""y"","""","""","""","""","""","""","""","""","""","""","""","""","""","""","""","""","""","""","""","""","""","""","""","""","""","""","""","""","""","""","""","""","""","""","""","""","""","""","""","""","""","""","""",""""
"""","""","""","""","""",""instructions"",""3"",""50919"",""0.0-3.0"",""67de0c86edec4b1fb38789b8"",""691f64b829bcd04aca23171c"",""69210ffa70d05dcadb247316"",""32385.90000000596"","""","""","""","""","""",""[{""""page_index"""":0,""""viewing_time"""":23204.60000000149},{""""page_index"""":1,""""viewing_time"""":9180.10000000149}]"",""instructions1"","""","""","""","""","""","""","""","""","""","""","""","""","""","""","""","""","""","""","""","""","""","""","""","""","""","""","""","""","""","""","""","""","""","""","""","""","""","""","""","""","""",""""
"""","""","""","""","""",""audio_response"",""4"",""60482"",""0.0-4.0"",""67de0c86edec4b1fb38789b8"",""691f64b829bcd04aca23171c"",""69210ffa70d05dcadb247316"",""60488.89999999851"","""","""","""","""","""","""","""",""{""""aud_check"""":""""Strawberries""""}"",""Strawberries"","""","""","""","""","""","""","""","""","""","""","""","""","""","""","""","""","""","""","""","""","""","""","""","""","""","""","""","""","""","""","""","""","""","""","""","""","""","""","""",""""
"""","""","""","""","""",""fullscreen"",""5"",""84266"",""0.0-6.0"",""67de0c86edec4b1fb38789b8"",""691f64b829bcd04aca23171c"",""69210ffa70d05dcadb247316"","""","""","""","""","""","""","""","""","""","""",""false"",""false"","""","""","""","""","""","""","""","""","""","""","""","""","""","""","""","""","""","""","""","""","""","""","""","""","""","""","""","""","""","""","""","""","""","""","""","""","""",""""
"""","""","""","""","""",""instructions"",""6"",""174721"",""0.0-7.0"",""67de0c86edec4b1fb38789b8"",""691f64b829bcd04aca23171c"",""69210ffa70d05dcadb247316"",""90454.20000000298"","""","""","""","""","""",""[{""""page_index"""":0,""""viewing_time"""":90453.70000000298}]"",""instructions1"","""","""","""","""","""","""","""","""","""","""","""","""","""","""","""","""","""","""","""","""","""","""","""","""","""","""","""","""","""","""","""","""","""","""","""","""","""","""","""","""","""",""""
"""","""","""","""","""",""audio_response"",""7"",""210157"",""0.0-8.0"",""67de0c86edec4b1fb38789b8"",""691f64b829bcd04aca23171c"",""69210ffa70d05dcadb247316"","""","""","""","""","""","""","""","""","""","""","""","""","""","""","""","""","""","""","""","""","""","""","""","""","""","""","""","""","""","""","""","""","""","""","""","""","""","""","""","""","""","""","""","""","""","""","""","""","""",""""
"""","""","""","""","""",""html-slider-response"",""8"",""216847"",""0.0-9.0-0.0"",""67de0c86edec4b1fb38789b8"",""691f64b829bcd04aca23171c"",""69210ffa70d05dcadb247316"",""6684.20000000298"",""<p>Based on the personal statement you just heard, please answer the following question using the slider below. .<br>(You can click on the appropriate part of the white bar, or drag the blue circle to the appropriate place.) <br><br><b>What is the likelihood that you would hire this person?</b></p><br>"","""","""","""","""","""",""follow_ups"","""","""","""","""",""100"",""hire"","""","""","""","""","""","""","""","""","""","""","""","""","""","""","""","""","""","""","""","""","""","""","""","""","""","""","""","""","""","""","""","""","""","""","""",""""
"""","""","""","""","""",""html-slider-response"",""9"",""221766"",""0.0-9.0-0.1"",""67de0c86edec4b1fb38789b8"",""691f64b829bcd04aca23171c"",""69210ffa70d05dcadb247316"",""4917"",""<p>Based on the personal statement you just heard, please answer the following question using the slider below.<br>(You can click on the appropriate part of the white bar, or drag the blue circle to the appropriate place.) <br><br><b>How intelligent is the author of this personal statement?</b></p><br>"","""","""","""","""","""",""follow_ups"","""","""","""","""",""100"",""intelligence"","""","""","""","""","""","""","""","""","""","""","""","""","""","""","""","""","""","""","""","""","""","""","""","""","""","""","""","""","""","""","""","""","""","""","""",""""
"""","""","""","""","""",""survey-html-form"",""10"",""325294"",""0.0-10.0"",""67de0c86edec4b1fb38789b8"",""691f64b829bcd04aca23171c"",""69210ffa70d05dcadb247316"",""103525.30000000447"","""","""","""","""","""","""",""debrief"",""{""""age"""":""""39"""",""""gender"""":""""male"""",""""audio_output"""":""""Laptop Speakers"""",""""testing"""":""""The experiment was testing on hiring qualities that one would consider when hiring a sales manager."""",""""audio_problems"""":""""NA"""",""""attention"""":""""100""""}"","""","""","""","""","""",""39"",""male"",""Laptop Speakers"",""NA"",""The experiment was testing on hiring qualities that one would consider when hiring a sales manager."","""",""100"",""true"","""","""","""","""","""","""","""","""","""","""","""","""","""","""","""","""","""","""","""","""","""","""","""","""","""","""","""",""""
"""","""","""","""","""",""survey-html-form"",""11"",""456918"",""0.0-11.0"",""67de0c86edec4b1fb38789b8"",""691f64b829bcd04aca23171c"",""69210ffa70d05dcadb247316"",""131622.20000000298"","""","""","""","""","""","""",""debrief2"",""{""""hire_exp"""":""""Yes"""",""""audio_quality"""":""""100"""",""""understandable"""":""""100"""",""""other"""":""""NA""""}"","""","""","""","""","""","""","""","""","""","""",""NA"","""","""",""100"",""100"",""Yes"","""","""","""","""","""","""","""","""","""","""","""","""","""","""","""","""","""","""","""","""","""","""","""","""",""""
"""","""","""","""","""",""html-keyboard-response"",""12"",""456970"",""0.0-12.0"",""67de0c86edec4b1fb38789b8"",""691f64b829bcd04aca23171c"",""69210ffa70d05dcadb247316"",""null"","""","""","""","""",""null"","""","""","""","""","""","""","""","""","""","""","""","""","""","""","""","""","""","""","""",""0"",""computer"",""false"",""sound_files/matthew_sales_short.mp3"",""hire-first"",""100"",""6684.20000000298"","""","""",""100"",""4917"","""","""",""39"",""male"",""Laptop Speakers"",""NA"",""The experiment was testing on hiring qualities that one would consider when hiring a sales manager."",""NA"",""100"",""100"",""100"",""Yes"",""true"",""67de0c86edec4b1fb38789b8_comp_hire_summary""
"""","""","""","""","""",""html-keyboard-response"",""13"",""459976"",""0.0-13.0"",""67de0c86edec4b1fb38789b8"",""691f64b829bcd04aca23171c"",""69210ffa70d05dcadb247316"",""null"",""Saving data ... One moment please..."","""","""","""",""null"","""","""","""","""","""","""","""","""","""","""","""","""","""","""","""","""","""","""","""","""","""","""","""","""","""","""","""","""","""","""","""","""","""","""","""","""","""","""","""","""","""","""","""",""""
",NA,NA,NA,NA,NA,NA,NA,NA,NA,NA,NA,NA,NA,NA,NA,NA,NA,NA,NA,NA,NA,NA,NA,NA,NA
NA,NA,html-keyboard-response,12,402515,0.0-12.0,6,human,TRUE,sound_files/human_sm_distort4.mp3,hire-first,26,10058.3,12,4725.6,28,male,Headphones,n/a,Testing whether or not you would hire someone based off of their voice and how they sound.,n/a,100,1,100,No,TRUE
"""success"",""timeout"",""failed_images"",""failed_audio"",""failed_video"",""trial_type"",""trial_index"",""time_elapsed"",""internal_node_id"",""subject"",""prolific_study_id"",""prolific_session_id"",""rt"",""stimulus"",""button_pressed"",""test_part"",""mobile"",""key_press"",""view_history"",""trial_part"",""responses"",""aud_check"",""pointer_error"",""pointer_redo"",""response"",""question"",""age"",""gender"",""audio_output"",""audio_problems"",""testing"",""other"",""attention"",""block_data"",""audio_quality"",""understandable"",""hire_exp"",""condition"",""voice_type"",""distorted_audio"",""sound_file"",""question_order"",""hire"",""hire_rt"",""hire_values"",""hire_rts"",""intelligence"",""intelligence_rt"",""intelligence_values"",""intelligence_rts"",""debrief_age"",""debrief_gender"",""debrief_audio_output"",""debrief_audio_problems"",""debrief_testing"",""debrief_other"",""debrief_attention"",""debrief_audio_quality"",""debrief_understandable"",""debrief_hire_exp"",""data_summary"",""participant_id""
""true"",""false"",""[]"",""[]"",""[]"",""preload"",""0"",""615"",""0.0-0.0"",""669d8b26896ecc9457727c9f"",""691f64b829bcd04aca23171c"",""692110e5862d1d7166211a1f"","""","""","""","""","""","""","""","""","""","""","""","""","""","""","""","""","""","""","""","""","""","""","""","""","""","""","""","""","""","""","""","""","""","""","""","""","""","""","""","""","""","""","""","""","""","""","""","""","""",""""
"""","""","""","""","""",""html-button-response"",""1"",""21654"",""0.0-1.0"",""669d8b26896ecc9457727c9f"",""691f64b829bcd04aca23171c"",""692110e5862d1d7166211a1f"",""21037.600000023842"",""Please note that this experiment is only designed to work from a computer or laptop.  Please <strong> do not </strong> continue if you are using a phone, tablet, or other mobile device.  If you are on a phone, tablet or other mobile device you will need to return to prolific <br>and click """"stop without completing"""".  <br> <br> If you are currently seeing this page from a laptop or computer, please click on the 'Continue' button.<br><br>"",""0"",""check_device"",""false"","""","""","""","""","""","""","""","""","""","""","""","""","""","""","""","""","""","""","""","""","""","""","""","""","""","""","""","""","""","""","""","""","""","""","""","""","""","""","""","""","""","""","""","""",""""
"""","""","""","""","""",""html-keyboard-response"",""2"",""24540"",""0.0-2.0"",""669d8b26896ecc9457727c9f"",""691f64b829bcd04aca23171c"",""692110e5862d1d7166211a1f"",""2884.1999999284744"",""<div style = 'font-size: .9vw; line-height: 1vw;'><h1>By answering the following questions, you are participating in a study being performed by cognitive scientists in the Stanford Department of Psychology.<br> <br><strong>***Please Read and press the 'Y' key to consent to this study*** </strong> </h1><h4>Consent for Participation in a Research Study</h4><div style='width: 100%; text-align: center'><div style='display: inline-block; margin: 0 auto; padding: 2vh 5vw; text-align: left'><h2>STUDY TITLE</h2><p>Perceiving Objects and Events</p><h2>RESEARCH STUDY SUMMARY, RISKS, AND BENEFITS</h2><p>Thank you for volunteering to participate in this research study. The purpose of this study is to better understand how we see and how we think. Study activities will include examining simple displays and then responding by answering questions, pressing some keys, or using a computer mouse. Because these are activities that many people already experience hundreds or thousands of times every day, there are no risks involved in this study. The study may have no benefits to you, but it may help the scientific community come to better understand how the human mind works. You must be at least 18 years old to participate. Your participation in this research is voluntary. You may decline to answer any or all of the following questions. You may decline further participation, at any time, without adverse consequences.</p><h2>DURATION</h2><p>If you agree to take part, the study will last approximately <strong>4 minutes</strong>.</p><h2>COSTS AND COMPENSATION</h2><p>There are no costs associated with participation in this study. You will receive <strong>$0.54</strong> for participating.</p><h1>CONFIDENTIALITY</h1><p>Your anonymity is assured; the researchers who have requested your participation will not receive any personal information about you.</p><h2>LEARNING MORE</h2><p>If you have questions about this research, please contact us at stanfordpsych251@gmail.com.</p><h2>INFORMED CONSENT</h2><p>Your participation indicates that you have read and understood this consent form and the information presented and that you agree to be in this study.</p></div></div> </div>"","""",""consent"","""",""y"","""","""","""","""","""","""","""","""","""","""","""","""","""","""","""","""","""","""","""","""","""","""","""","""","""","""","""","""","""","""","""","""","""","""","""","""","""","""","""","""","""","""","""",""""
"""","""","""","""","""",""instructions"",""3"",""72954"",""0.0-3.0"",""669d8b26896ecc9457727c9f"",""691f64b829bcd04aca23171c"",""692110e5862d1d7166211a1f"",""48414.200000047684"","""","""","""","""","""",""[{""""page_index"""":0,""""viewing_time"""":9055.200000047684},{""""page_index"""":1,""""viewing_time"""":39358.5}]"",""instructions1"","""","""","""","""","""","""","""","""","""","""","""","""","""","""","""","""","""","""","""","""","""","""","""","""","""","""","""","""","""","""","""","""","""","""","""","""","""","""","""","""","""",""""
"""","""","""","""","""",""audio_response"",""4"",""90361"",""0.0-4.0"",""669d8b26896ecc9457727c9f"",""691f64b829bcd04aca23171c"",""692110e5862d1d7166211a1f"",""90364.39999997616"","""","""","""","""","""","""","""",""{""""aud_check"""":""""Strawberries""""}"",""Strawberries"","""","""","""","""","""","""","""","""","""","""","""","""","""","""","""","""","""","""","""","""","""","""","""","""","""","""","""","""","""","""","""","""","""","""","""","""","""","""","""",""""
"""","""","""","""","""",""fullscreen"",""5"",""117688"",""0.0-6.0"",""669d8b26896ecc9457727c9f"",""691f64b829bcd04aca23171c"",""692110e5862d1d7166211a1f"","""","""","""","""","""","""","""","""","""","""",""false"",""false"","""","""","""","""","""","""","""","""","""","""","""","""","""","""","""","""","""","""","""","""","""","""","""","""","""","""","""","""","""","""","""","""","""","""","""","""","""",""""
"""","""","""","""","""",""instructions"",""6"",""201554"",""0.0-7.0"",""669d8b26896ecc9457727c9f"",""691f64b829bcd04aca23171c"",""692110e5862d1d7166211a1f"",""83865.19999992847"","""","""","""","""","""",""[{""""page_index"""":0,""""viewing_time"""":83864.69999992847}]"",""instructions1"","""","""","""","""","""","""","""","""","""","""","""","""","""","""","""","""","""","""","""","""","""","""","""","""","""","""","""","""","""","""","""","""","""","""","""","""","""","""","""","""","""",""""
"""","""","""","""","""",""audio_response"",""7"",""263566"",""0.0-8.0"",""669d8b26896ecc9457727c9f"",""691f64b829bcd04aca23171c"",""692110e5862d1d7166211a1f"","""","""","""","""","""","""","""","""","""","""","""","""","""","""","""","""","""","""","""","""","""","""","""","""","""","""","""","""","""","""","""","""","""","""","""","""","""","""","""","""","""","""","""","""","""","""","""","""","""",""""
"""","""","""","""","""",""html-slider-response"",""8"",""273641"",""0.0-9.0-0.0"",""669d8b26896ecc9457727c9f"",""691f64b829bcd04aca23171c"",""692110e5862d1d7166211a1f"",""10058.300000071526"",""<p>Based on the personal statement you just heard, please answer the following question using the slider below. .<br>(You can click on the appropriate part of the white bar, or drag the blue circle to the appropriate place.) <br><br><b>What is the likelihood that you would hire this person?</b></p><br>"","""","""","""","""","""",""follow_ups"","""","""","""","""",""26"",""hire"","""","""","""","""","""","""","""","""","""","""","""","""","""","""","""","""","""","""","""","""","""","""","""","""","""","""","""","""","""","""","""","""","""","""","""",""""
"""","""","""","""","""",""html-slider-response"",""9"",""278367"",""0.0-9.0-0.1"",""669d8b26896ecc9457727c9f"",""691f64b829bcd04aca23171c"",""692110e5862d1d7166211a1f"",""4725.600000023842"",""<p>Based on the personal statement you just heard, please answer the following question using the slider below.<br>(You can click on the appropriate part of the white bar, or drag the blue circle to the appropriate place.) <br><br><b>How intelligent is the author of this personal statement?</b></p><br>"","""","""","""","""","""",""follow_ups"","""","""","""","""",""12"",""intelligence"","""","""","""","""","""","""","""","""","""","""","""","""","""","""","""","""","""","""","""","""","""","""","""","""","""","""","""","""","""","""","""","""","""","""","""",""""
"""","""","""","""","""",""survey-html-form"",""10"",""330282"",""0.0-10.0"",""669d8b26896ecc9457727c9f"",""691f64b829bcd04aca23171c"",""692110e5862d1d7166211a1f"",""51911.300000071526"","""","""","""","""","""","""",""debrief"",""{""""age"""":""""28"""",""""gender"""":""""male"""",""""audio_output"""":""""Headphones"""",""""testing"""":""""Testing whether or not you would hire someone based off of their voice and how they sound."""",""""audio_problems"""":""""n/a"""",""""attention"""":""""100""""}"","""","""","""","""","""",""28"",""male"",""Headphones"",""n/a"",""Testing whether or not you would hire someone based off of their voice and how they sound."","""",""100"",""true"","""","""","""","""","""","""","""","""","""","""","""","""","""","""","""","""","""","""","""","""","""","""","""","""","""","""","""",""""
"""","""","""","""","""",""survey-html-form"",""11"",""402463"",""0.0-11.0"",""669d8b26896ecc9457727c9f"",""691f64b829bcd04aca23171c"",""692110e5862d1d7166211a1f"",""72180.5"","""","""","""","""","""","""",""debrief2"",""{""""hire_exp"""":""""No"""",""""audio_quality"""":""""1"""",""""understandable"""":""""100"""",""""other"""":""""n/a""""}"","""","""","""","""","""","""","""","""","""","""",""n/a"","""","""",""1"",""100"",""No"","""","""","""","""","""","""","""","""","""","""","""","""","""","""","""","""","""","""","""","""","""","""","""","""",""""
"""","""","""","""","""",""html-keyboard-response"",""12"",""402515"",""0.0-12.0"",""669d8b26896ecc9457727c9f"",""691f64b829bcd04aca23171c"",""692110e5862d1d7166211a1f"",""null"","""","""","""","""",""null"","""","""","""","""","""","""","""","""","""","""","""","""","""","""","""","""","""","""","""",""6"",""human"",""true"",""sound_files/human_sm_distort4.mp3"",""hire-first"",""26"",""10058.300000071526"","""","""",""12"",""4725.600000023842"","""","""",""28"",""male"",""Headphones"",""n/a"",""Testing whether or not you would hire someone based off of their voice and how they sound."",""n/a"",""100"",""1"",""100"",""No"",""true"",""669d8b26896ecc9457727c9f_comp_hire_summary""
"""","""","""","""","""",""html-keyboard-response"",""13"",""405531"",""0.0-13.0"",""669d8b26896ecc9457727c9f"",""691f64b829bcd04aca23171c"",""692110e5862d1d7166211a1f"",""null"",""Saving data ... One moment please..."","""","""","""",""null"","""","""","""","""","""","""","""","""","""","""","""","""","""","""","""","""","""","""","""","""","""","""","""","""","""","""","""","""","""","""","""","""","""","""","""","""","""","""","""","""","""","""","""",""""
",NA,NA,NA,NA,NA,NA,NA,NA,NA,NA,NA,NA,NA,NA,NA,NA,NA,NA,NA,NA,NA,NA,NA,NA,NA
NA,NA,html-keyboard-response,12,334724,0.0-12.0,6,human,TRUE,sound_files/human_sm_distort4.mp3,hire-first,11,11872.1,32,7590.4,56,male,Headphones,No,I think it was testing how we felt about a person we heard for a mock interview. It sounded very much computer generated to me.,I thought the voice sounded very much like it was computer generated.,97,12,95,Yes,TRUE
"""success"",""timeout"",""failed_images"",""failed_audio"",""failed_video"",""trial_type"",""trial_index"",""time_elapsed"",""internal_node_id"",""subject"",""prolific_study_id"",""prolific_session_id"",""rt"",""stimulus"",""button_pressed"",""test_part"",""mobile"",""key_press"",""view_history"",""trial_part"",""responses"",""aud_check"",""pointer_error"",""pointer_redo"",""response"",""question"",""age"",""gender"",""audio_output"",""audio_problems"",""testing"",""other"",""attention"",""block_data"",""audio_quality"",""understandable"",""hire_exp"",""condition"",""voice_type"",""distorted_audio"",""sound_file"",""question_order"",""hire"",""hire_rt"",""hire_values"",""hire_rts"",""intelligence"",""intelligence_rt"",""intelligence_values"",""intelligence_rts"",""debrief_age"",""debrief_gender"",""debrief_audio_output"",""debrief_audio_problems"",""debrief_testing"",""debrief_other"",""debrief_attention"",""debrief_audio_quality"",""debrief_understandable"",""debrief_hire_exp"",""data_summary"",""participant_id""
""true"",""false"",""[]"",""[]"",""[]"",""preload"",""0"",""789"",""0.0-0.0"",""5dd9e1e0a4aa2696d9a15c0d"",""691f64b829bcd04aca23171c"",""692111771385df81c5d1ca1f"","""","""","""","""","""","""","""","""","""","""","""","""","""","""","""","""","""","""","""","""","""","""","""","""","""","""","""","""","""","""","""","""","""","""","""","""","""","""","""","""","""","""","""","""","""","""","""","""","""",""""
"""","""","""","""","""",""html-button-response"",""1"",""9728"",""0.0-1.0"",""5dd9e1e0a4aa2696d9a15c0d"",""691f64b829bcd04aca23171c"",""692111771385df81c5d1ca1f"",""8936.299999982119"",""Please note that this experiment is only designed to work from a computer or laptop.  Please <strong> do not </strong> continue if you are using a phone, tablet, or other mobile device.  If you are on a phone, tablet or other mobile device you will need to return to prolific <br>and click """"stop without completing"""".  <br> <br> If you are currently seeing this page from a laptop or computer, please click on the 'Continue' button.<br><br>"",""0"",""check_device"",""false"","""","""","""","""","""","""","""","""","""","""","""","""","""","""","""","""","""","""","""","""","""","""","""","""","""","""","""","""","""","""","""","""","""","""","""","""","""","""","""","""","""","""","""","""",""""
"""","""","""","""","""",""html-keyboard-response"",""2"",""27694"",""0.0-2.0"",""5dd9e1e0a4aa2696d9a15c0d"",""691f64b829bcd04aca23171c"",""692111771385df81c5d1ca1f"",""17964.70000001788"",""<div style = 'font-size: .9vw; line-height: 1vw;'><h1>By answering the following questions, you are participating in a study being performed by cognitive scientists in the Stanford Department of Psychology.<br> <br><strong>***Please Read and press the 'Y' key to consent to this study*** </strong> </h1><h4>Consent for Participation in a Research Study</h4><div style='width: 100%; text-align: center'><div style='display: inline-block; margin: 0 auto; padding: 2vh 5vw; text-align: left'><h2>STUDY TITLE</h2><p>Perceiving Objects and Events</p><h2>RESEARCH STUDY SUMMARY, RISKS, AND BENEFITS</h2><p>Thank you for volunteering to participate in this research study. The purpose of this study is to better understand how we see and how we think. Study activities will include examining simple displays and then responding by answering questions, pressing some keys, or using a computer mouse. Because these are activities that many people already experience hundreds or thousands of times every day, there are no risks involved in this study. The study may have no benefits to you, but it may help the scientific community come to better understand how the human mind works. You must be at least 18 years old to participate. Your participation in this research is voluntary. You may decline to answer any or all of the following questions. You may decline further participation, at any time, without adverse consequences.</p><h2>DURATION</h2><p>If you agree to take part, the study will last approximately <strong>4 minutes</strong>.</p><h2>COSTS AND COMPENSATION</h2><p>There are no costs associated with participation in this study. You will receive <strong>$0.54</strong> for participating.</p><h1>CONFIDENTIALITY</h1><p>Your anonymity is assured; the researchers who have requested your participation will not receive any personal information about you.</p><h2>LEARNING MORE</h2><p>If you have questions about this research, please contact us at stanfordpsych251@gmail.com.</p><h2>INFORMED CONSENT</h2><p>Your participation indicates that you have read and understood this consent form and the information presented and that you agree to be in this study.</p></div></div> </div>"","""",""consent"","""",""y"","""","""","""","""","""","""","""","""","""","""","""","""","""","""","""","""","""","""","""","""","""","""","""","""","""","""","""","""","""","""","""","""","""","""","""","""","""","""","""","""","""","""","""",""""
"""","""","""","""","""",""instructions"",""3"",""41695"",""0.0-3.0"",""5dd9e1e0a4aa2696d9a15c0d"",""691f64b829bcd04aca23171c"",""692111771385df81c5d1ca1f"",""14000.800000011921"","""","""","""","""","""",""[{""""page_index"""":0,""""viewing_time"""":6360.300000011921},{""""page_index"""":1,""""viewing_time"""":7640}]"",""instructions1"","""","""","""","""","""","""","""","""","""","""","""","""","""","""","""","""","""","""","""","""","""","""","""","""","""","""","""","""","""","""","""","""","""","""","""","""","""","""","""","""","""",""""
"""","""","""","""","""",""audio_response"",""4"",""56935"",""0.0-4.0"",""5dd9e1e0a4aa2696d9a15c0d"",""691f64b829bcd04aca23171c"",""692111771385df81c5d1ca1f"",""56953.90000000596"","""","""","""","""","""","""","""",""{""""aud_check"""":""""Strawberries""""}"",""Strawberries"","""","""","""","""","""","""","""","""","""","""","""","""","""","""","""","""","""","""","""","""","""","""","""","""","""","""","""","""","""","""","""","""","""","""","""","""","""","""","""",""""
"""","""","""","""","""",""fullscreen"",""5"",""61902"",""0.0-6.0"",""5dd9e1e0a4aa2696d9a15c0d"",""691f64b829bcd04aca23171c"",""692111771385df81c5d1ca1f"","""","""","""","""","""","""","""","""","""","""",""false"",""false"","""","""","""","""","""","""","""","""","""","""","""","""","""","""","""","""","""","""","""","""","""","""","""","""","""","""","""","""","""","""","""","""","""","""","""","""","""",""""
"""","""","""","""","""",""instructions"",""6"",""75159"",""0.0-7.0"",""5dd9e1e0a4aa2696d9a15c0d"",""691f64b829bcd04aca23171c"",""692111771385df81c5d1ca1f"",""13255.40000000596"","""","""","""","""","""",""[{""""page_index"""":0,""""viewing_time"""":13254.90000000596}]"",""instructions1"","""","""","""","""","""","""","""","""","""","""","""","""","""","""","""","""","""","""","""","""","""","""","""","""","""","""","""","""","""","""","""","""","""","""","""","""","""","""","""","""","""",""""
"""","""","""","""","""",""audio_response"",""7"",""108900"",""0.0-8.0"",""5dd9e1e0a4aa2696d9a15c0d"",""691f64b829bcd04aca23171c"",""692111771385df81c5d1ca1f"","""","""","""","""","""","""","""","""","""","""","""","""","""","""","""","""","""","""","""","""","""","""","""","""","""","""","""","""","""","""","""","""","""","""","""","""","""","""","""","""","""","""","""","""","""","""","""","""","""",""""
"""","""","""","""","""",""html-slider-response"",""8"",""120774"",""0.0-9.0-0.0"",""5dd9e1e0a4aa2696d9a15c0d"",""691f64b829bcd04aca23171c"",""692111771385df81c5d1ca1f"",""11872.09999999404"",""<p>Based on the personal statement you just heard, please answer the following question using the slider below. .<br>(You can click on the appropriate part of the white bar, or drag the blue circle to the appropriate place.) <br><br><b>What is the likelihood that you would hire this person?</b></p><br>"","""","""","""","""","""",""follow_ups"","""","""","""","""",""11"",""hire"","""","""","""","""","""","""","""","""","""","""","""","""","""","""","""","""","""","""","""","""","""","""","""","""","""","""","""","""","""","""","""","""","""","""","""",""""
"""","""","""","""","""",""html-slider-response"",""9"",""128366"",""0.0-9.0-0.1"",""5dd9e1e0a4aa2696d9a15c0d"",""691f64b829bcd04aca23171c"",""692111771385df81c5d1ca1f"",""7590.4000000059605"",""<p>Based on the personal statement you just heard, please answer the following question using the slider below.<br>(You can click on the appropriate part of the white bar, or drag the blue circle to the appropriate place.) <br><br><b>How intelligent is the author of this personal statement?</b></p><br>"","""","""","""","""","""",""follow_ups"","""","""","""","""",""32"",""intelligence"","""","""","""","""","""","""","""","""","""","""","""","""","""","""","""","""","""","""","""","""","""","""","""","""","""","""","""","""","""","""","""","""","""","""","""",""""
"""","""","""","""","""",""survey-html-form"",""10"",""257448"",""0.0-10.0"",""5dd9e1e0a4aa2696d9a15c0d"",""691f64b829bcd04aca23171c"",""692111771385df81c5d1ca1f"",""129078.39999997616"","""","""","""","""","""","""",""debrief"",""{""""age"""":""""56"""",""""gender"""":""""male"""",""""audio_output"""":""""Headphones"""",""""testing"""":""""I think it was testing how we felt about a person we heard for a mock interview. It sounded very much computer generated to me."""",""""audio_problems"""":""""No"""",""""attention"""":""""97""""}"","""","""","""","""","""",""56"",""male"",""Headphones"",""No"",""I think it was testing how we felt about a person we heard for a mock interview. It sounded very much computer generated to me."","""",""97"",""true"","""","""","""","""","""","""","""","""","""","""","""","""","""","""","""","""","""","""","""","""","""","""","""","""","""","""","""",""""
"""","""","""","""","""",""survey-html-form"",""11"",""334671"",""0.0-11.0"",""5dd9e1e0a4aa2696d9a15c0d"",""691f64b829bcd04aca23171c"",""692111771385df81c5d1ca1f"",""77220.80000001192"","""","""","""","""","""","""",""debrief2"",""{""""hire_exp"""":""""Yes"""",""""audio_quality"""":""""12"""",""""understandable"""":""""95"""",""""other"""":""""I thought the voice sounded very much like it was computer generated.""""}"","""","""","""","""","""","""","""","""","""","""",""I thought the voice sounded very much like it was computer generated."","""","""",""12"",""95"",""Yes"","""","""","""","""","""","""","""","""","""","""","""","""","""","""","""","""","""","""","""","""","""","""","""","""",""""
"""","""","""","""","""",""html-keyboard-response"",""12"",""334724"",""0.0-12.0"",""5dd9e1e0a4aa2696d9a15c0d"",""691f64b829bcd04aca23171c"",""692111771385df81c5d1ca1f"",""null"","""","""","""","""",""null"","""","""","""","""","""","""","""","""","""","""","""","""","""","""","""","""","""","""","""",""6"",""human"",""true"",""sound_files/human_sm_distort4.mp3"",""hire-first"",""11"",""11872.09999999404"","""","""",""32"",""7590.4000000059605"","""","""",""56"",""male"",""Headphones"",""No"",""I think it was testing how we felt about a person we heard for a mock interview. It sounded very much computer generated to me."",""I thought the voice sounded very much like it was computer generated."",""97"",""12"",""95"",""Yes"",""true"",""5dd9e1e0a4aa2696d9a15c0d_comp_hire_summary""
"""","""","""","""","""",""html-keyboard-response"",""13"",""337743"",""0.0-13.0"",""5dd9e1e0a4aa2696d9a15c0d"",""691f64b829bcd04aca23171c"",""692111771385df81c5d1ca1f"",""null"",""Saving data ... One moment please..."","""","""","""",""null"","""","""","""","""","""","""","""","""","""","""","""","""","""","""","""","""","""","""","""","""","""","""","""","""","""","""","""","""","""","""","""","""","""","""","""","""","""","""","""","""","""","""","""",""""
",NA,NA,NA,NA,NA,NA,NA,NA,NA,NA,NA,NA,NA,NA,NA,NA,NA,NA,NA,NA,NA,NA,NA,NA,NA
NA,NA,html-keyboard-response,12,385641,0.0-12.0,2,computer,TRUE,sound_files/matthew_sales_short_distort4.mp3,hire-first,0,12433.4,31,9222.2,71,female,Headphones,No.,Human perception of artificial intelligence considering job placement in a customer-facing or supervisory position.,No.,100,30,100,Yes,TRUE
"""success"",""timeout"",""failed_images"",""failed_audio"",""failed_video"",""trial_type"",""trial_index"",""time_elapsed"",""internal_node_id"",""subject"",""prolific_study_id"",""prolific_session_id"",""rt"",""stimulus"",""button_pressed"",""test_part"",""mobile"",""key_press"",""view_history"",""trial_part"",""responses"",""aud_check"",""pointer_error"",""pointer_redo"",""response"",""question"",""age"",""gender"",""audio_output"",""audio_problems"",""testing"",""other"",""attention"",""block_data"",""audio_quality"",""understandable"",""hire_exp"",""condition"",""voice_type"",""distorted_audio"",""sound_file"",""question_order"",""hire"",""hire_rt"",""hire_values"",""hire_rts"",""intelligence"",""intelligence_rt"",""intelligence_values"",""intelligence_rts"",""debrief_age"",""debrief_gender"",""debrief_audio_output"",""debrief_audio_problems"",""debrief_testing"",""debrief_other"",""debrief_attention"",""debrief_audio_quality"",""debrief_understandable"",""debrief_hire_exp"",""data_summary"",""participant_id""
""true"",""false"",""[]"",""[]"",""[]"",""preload"",""0"",""652"",""0.0-0.0"",""6732ca9052a3b5780ec6068a"",""691f64b829bcd04aca23171c"",""69211a17e97f5df4494dc8aa"","""","""","""","""","""","""","""","""","""","""","""","""","""","""","""","""","""","""","""","""","""","""","""","""","""","""","""","""","""","""","""","""","""","""","""","""","""","""","""","""","""","""","""","""","""","""","""","""","""",""""
"""","""","""","""","""",""html-button-response"",""1"",""13430"",""0.0-1.0"",""6732ca9052a3b5780ec6068a"",""691f64b829bcd04aca23171c"",""69211a17e97f5df4494dc8aa"",""12777.199999988079"",""Please note that this experiment is only designed to work from a computer or laptop.  Please <strong> do not </strong> continue if you are using a phone, tablet, or other mobile device.  If you are on a phone, tablet or other mobile device you will need to return to prolific <br>and click """"stop without completing"""".  <br> <br> If you are currently seeing this page from a laptop or computer, please click on the 'Continue' button.<br><br>"",""0"",""check_device"",""false"","""","""","""","""","""","""","""","""","""","""","""","""","""","""","""","""","""","""","""","""","""","""","""","""","""","""","""","""","""","""","""","""","""","""","""","""","""","""","""","""","""","""","""","""",""""
"""","""","""","""","""",""html-keyboard-response"",""2"",""47556"",""0.0-2.0"",""6732ca9052a3b5780ec6068a"",""691f64b829bcd04aca23171c"",""69211a17e97f5df4494dc8aa"",""34124"",""<div style = 'font-size: .9vw; line-height: 1vw;'><h1>By answering the following questions, you are participating in a study being performed by cognitive scientists in the Stanford Department of Psychology.<br> <br><strong>***Please Read and press the 'Y' key to consent to this study*** </strong> </h1><h4>Consent for Participation in a Research Study</h4><div style='width: 100%; text-align: center'><div style='display: inline-block; margin: 0 auto; padding: 2vh 5vw; text-align: left'><h2>STUDY TITLE</h2><p>Perceiving Objects and Events</p><h2>RESEARCH STUDY SUMMARY, RISKS, AND BENEFITS</h2><p>Thank you for volunteering to participate in this research study. The purpose of this study is to better understand how we see and how we think. Study activities will include examining simple displays and then responding by answering questions, pressing some keys, or using a computer mouse. Because these are activities that many people already experience hundreds or thousands of times every day, there are no risks involved in this study. The study may have no benefits to you, but it may help the scientific community come to better understand how the human mind works. You must be at least 18 years old to participate. Your participation in this research is voluntary. You may decline to answer any or all of the following questions. You may decline further participation, at any time, without adverse consequences.</p><h2>DURATION</h2><p>If you agree to take part, the study will last approximately <strong>4 minutes</strong>.</p><h2>COSTS AND COMPENSATION</h2><p>There are no costs associated with participation in this study. You will receive <strong>$0.54</strong> for participating.</p><h1>CONFIDENTIALITY</h1><p>Your anonymity is assured; the researchers who have requested your participation will not receive any personal information about you.</p><h2>LEARNING MORE</h2><p>If you have questions about this research, please contact us at stanfordpsych251@gmail.com.</p><h2>INFORMED CONSENT</h2><p>Your participation indicates that you have read and understood this consent form and the information presented and that you agree to be in this study.</p></div></div> </div>"","""",""consent"","""",""y"","""","""","""","""","""","""","""","""","""","""","""","""","""","""","""","""","""","""","""","""","""","""","""","""","""","""","""","""","""","""","""","""","""","""","""","""","""","""","""","""","""","""","""",""""
"""","""","""","""","""",""instructions"",""3"",""69562"",""0.0-3.0"",""6732ca9052a3b5780ec6068a"",""691f64b829bcd04aca23171c"",""69211a17e97f5df4494dc8aa"",""22005.600000023842"","""","""","""","""","""",""[{""""page_index"""":0,""""viewing_time"""":13606.800000011921},{""""page_index"""":1,""""viewing_time"""":8398.199999988079}]"",""instructions1"","""","""","""","""","""","""","""","""","""","""","""","""","""","""","""","""","""","""","""","""","""","""","""","""","""","""","""","""","""","""","""","""","""","""","""","""","""","""","""","""","""",""""
"""","""","""","""","""",""audio_response"",""4"",""85726"",""0.0-4.0"",""6732ca9052a3b5780ec6068a"",""691f64b829bcd04aca23171c"",""69211a17e97f5df4494dc8aa"",""85745.20000004768"","""","""","""","""","""","""","""",""{""""aud_check"""":""""Strawberries""""}"",""Strawberries"","""","""","""","""","""","""","""","""","""","""","""","""","""","""","""","""","""","""","""","""","""","""","""","""","""","""","""","""","""","""","""","""","""","""","""","""","""","""","""",""""
"""","""","""","""","""",""fullscreen"",""5"",""97829"",""0.0-6.0"",""6732ca9052a3b5780ec6068a"",""691f64b829bcd04aca23171c"",""69211a17e97f5df4494dc8aa"","""","""","""","""","""","""","""","""","""","""",""false"",""false"","""","""","""","""","""","""","""","""","""","""","""","""","""","""","""","""","""","""","""","""","""","""","""","""","""","""","""","""","""","""","""","""","""","""","""","""","""",""""
"""","""","""","""","""",""instructions"",""6"",""110065"",""0.0-7.0"",""6732ca9052a3b5780ec6068a"",""691f64b829bcd04aca23171c"",""69211a17e97f5df4494dc8aa"",""12235.400000035763"","""","""","""","""","""",""[{""""page_index"""":0,""""viewing_time"""":12235}]"",""instructions1"","""","""","""","""","""","""","""","""","""","""","""","""","""","""","""","""","""","""","""","""","""","""","""","""","""","""","""","""","""","""","""","""","""","""","""","""","""","""","""","""","""",""""
"""","""","""","""","""",""audio_response"",""7"",""144670"",""0.0-8.0"",""6732ca9052a3b5780ec6068a"",""691f64b829bcd04aca23171c"",""69211a17e97f5df4494dc8aa"","""","""","""","""","""","""","""","""","""","""","""","""","""","""","""","""","""","""","""","""","""","""","""","""","""","""","""","""","""","""","""","""","""","""","""","""","""","""","""","""","""","""","""","""","""","""","""","""","""",""""
"""","""","""","""","""",""html-slider-response"",""8"",""157105"",""0.0-9.0-0.0"",""6732ca9052a3b5780ec6068a"",""691f64b829bcd04aca23171c"",""69211a17e97f5df4494dc8aa"",""12433.400000035763"",""<p>Based on the personal statement you just heard, please answer the following question using the slider below. .<br>(You can click on the appropriate part of the white bar, or drag the blue circle to the appropriate place.) <br><br><b>What is the likelihood that you would hire this person?</b></p><br>"","""","""","""","""","""",""follow_ups"","""","""","""","""",""0"",""hire"","""","""","""","""","""","""","""","""","""","""","""","""","""","""","""","""","""","""","""","""","""","""","""","""","""","""","""","""","""","""","""","""","""","""","""",""""
"""","""","""","""","""",""html-slider-response"",""9"",""166328"",""0.0-9.0-0.1"",""6732ca9052a3b5780ec6068a"",""691f64b829bcd04aca23171c"",""69211a17e97f5df4494dc8aa"",""9222.200000047684"",""<p>Based on the personal statement you just heard, please answer the following question using the slider below.<br>(You can click on the appropriate part of the white bar, or drag the blue circle to the appropriate place.) <br><br><b>How intelligent is the author of this personal statement?</b></p><br>"","""","""","""","""","""",""follow_ups"","""","""","""","""",""31"",""intelligence"","""","""","""","""","""","""","""","""","""","""","""","""","""","""","""","""","""","""","""","""","""","""","""","""","""","""","""","""","""","""","""","""","""","""","""",""""
"""","""","""","""","""",""survey-html-form"",""10"",""341502"",""0.0-10.0"",""6732ca9052a3b5780ec6068a"",""691f64b829bcd04aca23171c"",""69211a17e97f5df4494dc8aa"",""175172.10000002384"","""","""","""","""","""","""",""debrief"",""{""""age"""":""""71"""",""""gender"""":""""female"""",""""audio_output"""":""""Headphones"""",""""testing"""":""""Human perception of artificial intelligence considering job placement in a customer-facing or supervisory position."""",""""audio_problems"""":""""No."""",""""attention"""":""""100""""}"","""","""","""","""","""",""71"",""female"",""Headphones"",""No."",""Human perception of artificial intelligence considering job placement in a customer-facing or supervisory position."","""",""100"",""true"","""","""","""","""","""","""","""","""","""","""","""","""","""","""","""","""","""","""","""","""","""","""","""","""","""","""","""",""""
"""","""","""","""","""",""survey-html-form"",""11"",""385579"",""0.0-11.0"",""6732ca9052a3b5780ec6068a"",""691f64b829bcd04aca23171c"",""69211a17e97f5df4494dc8aa"",""44075.39999997616"","""","""","""","""","""","""",""debrief2"",""{""""hire_exp"""":""""Yes"""",""""audio_quality"""":""""30"""",""""understandable"""":""""100"""",""""other"""":""""No.""""}"","""","""","""","""","""","""","""","""","""","""",""No."","""","""",""30"",""100"",""Yes"","""","""","""","""","""","""","""","""","""","""","""","""","""","""","""","""","""","""","""","""","""","""","""","""",""""
"""","""","""","""","""",""html-keyboard-response"",""12"",""385641"",""0.0-12.0"",""6732ca9052a3b5780ec6068a"",""691f64b829bcd04aca23171c"",""69211a17e97f5df4494dc8aa"",""null"","""","""","""","""",""null"","""","""","""","""","""","""","""","""","""","""","""","""","""","""","""","""","""","""","""",""2"",""computer"",""true"",""sound_files/matthew_sales_short_distort4.mp3"",""hire-first"",""0"",""12433.400000035763"","""","""",""31"",""9222.200000047684"","""","""",""71"",""female"",""Headphones"",""No."",""Human perception of artificial intelligence considering job placement in a customer-facing or supervisory position."",""No."",""100"",""30"",""100"",""Yes"",""true"",""6732ca9052a3b5780ec6068a_comp_hire_summary""
"""","""","""","""","""",""html-keyboard-response"",""13"",""388654"",""0.0-13.0"",""6732ca9052a3b5780ec6068a"",""691f64b829bcd04aca23171c"",""69211a17e97f5df4494dc8aa"",""null"",""Saving data ... One moment please..."","""","""","""",""null"","""","""","""","""","""","""","""","""","""","""","""","""","""","""","""","""","""","""","""","""","""","""","""","""","""","""","""","""","""","""","""","""","""","""","""","""","""","""","""","""","""","""","""",""""
",NA,NA,NA,NA,NA,NA,NA,NA,NA,NA,NA,NA,NA,NA,NA,NA,NA,NA,NA,NA,NA,NA,NA,NA,NA
NA,NA,html-keyboard-response,12,314384,0.0-12.0,5,human,FALSE,sound_files/human_sm_undistorted.mp3,intel-first,74,14356.5,88,7509.1,40,male,Headphones,I did not have any technical difficulties or distractions.,It was testing how the voice and the word choice and speaking style of the interviewee affect our perception of their qualifications.,No.,98,90,91,No,TRUE
"""success"",""timeout"",""failed_images"",""failed_audio"",""failed_video"",""trial_type"",""trial_index"",""time_elapsed"",""internal_node_id"",""subject"",""prolific_study_id"",""prolific_session_id"",""rt"",""stimulus"",""button_pressed"",""test_part"",""mobile"",""key_press"",""view_history"",""trial_part"",""responses"",""aud_check"",""pointer_error"",""pointer_redo"",""response"",""question"",""age"",""gender"",""audio_output"",""audio_problems"",""testing"",""other"",""attention"",""block_data"",""audio_quality"",""understandable"",""hire_exp"",""condition"",""voice_type"",""distorted_audio"",""sound_file"",""question_order"",""hire"",""hire_rt"",""hire_values"",""hire_rts"",""intelligence"",""intelligence_rt"",""intelligence_values"",""intelligence_rts"",""debrief_age"",""debrief_gender"",""debrief_audio_output"",""debrief_audio_problems"",""debrief_testing"",""debrief_other"",""debrief_attention"",""debrief_audio_quality"",""debrief_understandable"",""debrief_hire_exp"",""data_summary"",""participant_id""
""true"",""false"",""[]"",""[]"",""[]"",""preload"",""0"",""1191"",""0.0-0.0"",""57656f6c2bfddf000125cce5"",""691f64b829bcd04aca23171c"",""692120ab1c9a92aa30fc38a5"","""","""","""","""","""","""","""","""","""","""","""","""","""","""","""","""","""","""","""","""","""","""","""","""","""","""","""","""","""","""","""","""","""","""","""","""","""","""","""","""","""","""","""","""","""","""","""","""","""",""""
"""","""","""","""","""",""html-button-response"",""1"",""27937"",""0.0-1.0"",""57656f6c2bfddf000125cce5"",""691f64b829bcd04aca23171c"",""692120ab1c9a92aa30fc38a5"",""26741.30000001192"",""Please note that this experiment is only designed to work from a computer or laptop.  Please <strong> do not </strong> continue if you are using a phone, tablet, or other mobile device.  If you are on a phone, tablet or other mobile device you will need to return to prolific <br>and click """"stop without completing"""".  <br> <br> If you are currently seeing this page from a laptop or computer, please click on the 'Continue' button.<br><br>"",""0"",""check_device"",""false"","""","""","""","""","""","""","""","""","""","""","""","""","""","""","""","""","""","""","""","""","""","""","""","""","""","""","""","""","""","""","""","""","""","""","""","""","""","""","""","""","""","""","""","""",""""
"""","""","""","""","""",""html-keyboard-response"",""2"",""34845"",""0.0-2.0"",""57656f6c2bfddf000125cce5"",""691f64b829bcd04aca23171c"",""692120ab1c9a92aa30fc38a5"",""6903.5999999940395"",""<div style = 'font-size: .9vw; line-height: 1vw;'><h1>By answering the following questions, you are participating in a study being performed by cognitive scientists in the Stanford Department of Psychology.<br> <br><strong>***Please Read and press the 'Y' key to consent to this study*** </strong> </h1><h4>Consent for Participation in a Research Study</h4><div style='width: 100%; text-align: center'><div style='display: inline-block; margin: 0 auto; padding: 2vh 5vw; text-align: left'><h2>STUDY TITLE</h2><p>Perceiving Objects and Events</p><h2>RESEARCH STUDY SUMMARY, RISKS, AND BENEFITS</h2><p>Thank you for volunteering to participate in this research study. The purpose of this study is to better understand how we see and how we think. Study activities will include examining simple displays and then responding by answering questions, pressing some keys, or using a computer mouse. Because these are activities that many people already experience hundreds or thousands of times every day, there are no risks involved in this study. The study may have no benefits to you, but it may help the scientific community come to better understand how the human mind works. You must be at least 18 years old to participate. Your participation in this research is voluntary. You may decline to answer any or all of the following questions. You may decline further participation, at any time, without adverse consequences.</p><h2>DURATION</h2><p>If you agree to take part, the study will last approximately <strong>4 minutes</strong>.</p><h2>COSTS AND COMPENSATION</h2><p>There are no costs associated with participation in this study. You will receive <strong>$0.54</strong> for participating.</p><h1>CONFIDENTIALITY</h1><p>Your anonymity is assured; the researchers who have requested your participation will not receive any personal information about you.</p><h2>LEARNING MORE</h2><p>If you have questions about this research, please contact us at stanfordpsych251@gmail.com.</p><h2>INFORMED CONSENT</h2><p>Your participation indicates that you have read and understood this consent form and the information presented and that you agree to be in this study.</p></div></div> </div>"","""",""consent"","""",""y"","""","""","""","""","""","""","""","""","""","""","""","""","""","""","""","""","""","""","""","""","""","""","""","""","""","""","""","""","""","""","""","""","""","""","""","""","""","""","""","""","""","""","""",""""
"""","""","""","""","""",""instructions"",""3"",""52319"",""0.0-3.0"",""57656f6c2bfddf000125cce5"",""691f64b829bcd04aca23171c"",""692120ab1c9a92aa30fc38a5"",""17473.09999999404"","""","""","""","""","""",""[{""""page_index"""":0,""""viewing_time"""":9024.59999999404},{""""page_index"""":1,""""viewing_time"""":8447.799999982119}]"",""instructions1"","""","""","""","""","""","""","""","""","""","""","""","""","""","""","""","""","""","""","""","""","""","""","""","""","""","""","""","""","""","""","""","""","""","""","""","""","""","""","""","""","""",""""
"""","""","""","""","""",""audio_response"",""4"",""67383"",""0.0-4.0"",""57656f6c2bfddf000125cce5"",""691f64b829bcd04aca23171c"",""692120ab1c9a92aa30fc38a5"",""67739"","""","""","""","""","""","""","""",""{""""aud_check"""":""""Strawberries""""}"",""Strawberries"","""","""","""","""","""","""","""","""","""","""","""","""","""","""","""","""","""","""","""","""","""","""","""","""","""","""","""","""","""","""","""","""","""","""","""","""","""","""","""",""""
"""","""","""","""","""",""fullscreen"",""5"",""73863"",""0.0-6.0"",""57656f6c2bfddf000125cce5"",""691f64b829bcd04aca23171c"",""692120ab1c9a92aa30fc38a5"","""","""","""","""","""","""","""","""","""","""",""false"",""false"","""","""","""","""","""","""","""","""","""","""","""","""","""","""","""","""","""","""","""","""","""","""","""","""","""","""","""","""","""","""","""","""","""","""","""","""","""",""""
"""","""","""","""","""",""instructions"",""6"",""132511"",""0.0-7.0"",""57656f6c2bfddf000125cce5"",""691f64b829bcd04aca23171c"",""692120ab1c9a92aa30fc38a5"",""58641.79999998212"","""","""","""","""","""",""[{""""page_index"""":0,""""viewing_time"""":58641.19999998808}]"",""instructions1"","""","""","""","""","""","""","""","""","""","""","""","""","""","""","""","""","""","""","""","""","""","""","""","""","""","""","""","""","""","""","""","""","""","""","""","""","""","""","""","""","""",""""
"""","""","""","""","""",""audio_response"",""7"",""164205"",""0.0-8.0"",""57656f6c2bfddf000125cce5"",""691f64b829bcd04aca23171c"",""692120ab1c9a92aa30fc38a5"","""","""","""","""","""","""","""","""","""","""","""","""","""","""","""","""","""","""","""","""","""","""","""","""","""","""","""","""","""","""","""","""","""","""","""","""","""","""","""","""","""","""","""","""","""","""","""","""","""",""""
"""","""","""","""","""",""html-slider-response"",""8"",""171719"",""0.0-9.0-0.0"",""57656f6c2bfddf000125cce5"",""691f64b829bcd04aca23171c"",""692120ab1c9a92aa30fc38a5"",""7509.0999999940395"",""<p>Based on the personal statement you just heard, please answer the following question using the slider below.<br>(You can click on the appropriate part of the white bar, or drag the blue circle to the appropriate place.) <br><br><b>How intelligent is the author of this personal statement?</b></p><br>"","""","""","""","""","""",""follow_ups"","""","""","""","""",""88"",""intelligence"","""","""","""","""","""","""","""","""","""","""","""","""","""","""","""","""","""","""","""","""","""","""","""","""","""","""","""","""","""","""","""","""","""","""","""",""""
"""","""","""","""","""",""html-slider-response"",""9"",""186079"",""0.0-9.0-0.1"",""57656f6c2bfddf000125cce5"",""691f64b829bcd04aca23171c"",""692120ab1c9a92aa30fc38a5"",""14356.5"",""<p>Based on the personal statement you just heard, please answer the following question using the slider below. .<br>(You can click on the appropriate part of the white bar, or drag the blue circle to the appropriate place.) <br><br><b>What is the likelihood that you would hire this person?</b></p><br>"","""","""","""","""","""",""follow_ups"","""","""","""","""",""74"",""hire"","""","""","""","""","""","""","""","""","""","""","""","""","""","""","""","""","""","""","""","""","""","""","""","""","""","""","""","""","""","""","""","""","""","""","""",""""
"""","""","""","""","""",""survey-html-form"",""10"",""264258"",""0.0-10.0"",""57656f6c2bfddf000125cce5"",""691f64b829bcd04aca23171c"",""692120ab1c9a92aa30fc38a5"",""78165.30000001192"","""","""","""","""","""","""",""debrief"",""{""""age"""":""""40"""",""""gender"""":""""male"""",""""audio_output"""":""""Headphones"""",""""testing"""":""""It was testing how the voice and the word choice and speaking style of the interviewee affect our perception of their qualifications."""",""""audio_problems"""":""""I did not have any technical difficulties or distractions."""",""""attention"""":""""98""""}"","""","""","""","""","""",""40"",""male"",""Headphones"",""I did not have any technical difficulties or distractions."",""It was testing how the voice and the word choice and speaking style of the interviewee affect our perception of their qualifications."","""",""98"",""true"","""","""","""","""","""","""","""","""","""","""","""","""","""","""","""","""","""","""","""","""","""","""","""","""","""","""","""",""""
"""","""","""","""","""",""survey-html-form"",""11"",""314332"",""0.0-11.0"",""57656f6c2bfddf000125cce5"",""691f64b829bcd04aca23171c"",""692120ab1c9a92aa30fc38a5"",""50066.19999998808"","""","""","""","""","""","""",""debrief2"",""{""""hire_exp"""":""""No"""",""""audio_quality"""":""""90"""",""""understandable"""":""""91"""",""""other"""":""""No.""""}"","""","""","""","""","""","""","""","""","""","""",""No."","""","""",""90"",""91"",""No"","""","""","""","""","""","""","""","""","""","""","""","""","""","""","""","""","""","""","""","""","""","""","""","""",""""
"""","""","""","""","""",""html-keyboard-response"",""12"",""314384"",""0.0-12.0"",""57656f6c2bfddf000125cce5"",""691f64b829bcd04aca23171c"",""692120ab1c9a92aa30fc38a5"",""null"","""","""","""","""",""null"","""","""","""","""","""","""","""","""","""","""","""","""","""","""","""","""","""","""","""",""5"",""human"",""false"",""sound_files/human_sm_undistorted.mp3"",""intel-first"",""74"",""14356.5"","""","""",""88"",""7509.0999999940395"","""","""",""40"",""male"",""Headphones"",""I did not have any technical difficulties or distractions."",""It was testing how the voice and the word choice and speaking style of the interviewee affect our perception of their qualifications."",""No."",""98"",""90"",""91"",""No"",""true"",""57656f6c2bfddf000125cce5_comp_hire_summary""
"""","""","""","""","""",""html-keyboard-response"",""13"",""317390"",""0.0-13.0"",""57656f6c2bfddf000125cce5"",""691f64b829bcd04aca23171c"",""692120ab1c9a92aa30fc38a5"",""null"",""Saving data ... One moment please..."","""","""","""",""null"","""","""","""","""","""","""","""","""","""","""","""","""","""","""","""","""","""","""","""","""","""","""","""","""","""","""","""","""","""","""","""","""","""","""","""","""","""","""","""","""","""","""","""",""""
",NA,NA,NA,NA,NA,NA,NA,NA,NA,NA,NA,NA,NA,NA,NA,NA,NA,NA,NA,NA,NA,NA,NA,NA,NA
NA,NA,html-keyboard-response,12,204776,0.0-12.0,4,human,FALSE,sound_files/human_sm_undistorted.mp3,hire-first,58,6826,78,4746.4,69,male,External Speakers,no problems,not sure,nothing else,100,94,100,No,TRUE
"""success"",""timeout"",""failed_images"",""failed_audio"",""failed_video"",""trial_type"",""trial_index"",""time_elapsed"",""internal_node_id"",""subject"",""prolific_study_id"",""prolific_session_id"",""rt"",""stimulus"",""button_pressed"",""test_part"",""mobile"",""key_press"",""view_history"",""trial_part"",""responses"",""aud_check"",""pointer_error"",""pointer_redo"",""response"",""question"",""age"",""gender"",""audio_output"",""audio_problems"",""testing"",""other"",""attention"",""block_data"",""audio_quality"",""understandable"",""hire_exp"",""condition"",""voice_type"",""distorted_audio"",""sound_file"",""question_order"",""hire"",""hire_rt"",""hire_values"",""hire_rts"",""intelligence"",""intelligence_rt"",""intelligence_values"",""intelligence_rts"",""debrief_age"",""debrief_gender"",""debrief_audio_output"",""debrief_audio_problems"",""debrief_testing"",""debrief_other"",""debrief_attention"",""debrief_audio_quality"",""debrief_understandable"",""debrief_hire_exp"",""data_summary"",""participant_id""
""true"",""false"",""[]"",""[]"",""[]"",""preload"",""0"",""1154"",""0.0-0.0"",""5d1511f1e814b800016108a6"",""691f64b829bcd04aca23171c"",""69212340b81b6b2ddd0bd896"","""","""","""","""","""","""","""","""","""","""","""","""","""","""","""","""","""","""","""","""","""","""","""","""","""","""","""","""","""","""","""","""","""","""","""","""","""","""","""","""","""","""","""","""","""","""","""","""","""",""""
"""","""","""","""","""",""html-button-response"",""1"",""13201"",""0.0-1.0"",""5d1511f1e814b800016108a6"",""691f64b829bcd04aca23171c"",""69212340b81b6b2ddd0bd896"",""12040"",""Please note that this experiment is only designed to work from a computer or laptop.  Please <strong> do not </strong> continue if you are using a phone, tablet, or other mobile device.  If you are on a phone, tablet or other mobile device you will need to return to prolific <br>and click """"stop without completing"""".  <br> <br> If you are currently seeing this page from a laptop or computer, please click on the 'Continue' button.<br><br>"",""0"",""check_device"",""false"","""","""","""","""","""","""","""","""","""","""","""","""","""","""","""","""","""","""","""","""","""","""","""","""","""","""","""","""","""","""","""","""","""","""","""","""","""","""","""","""","""","""","""","""",""""
"""","""","""","""","""",""html-keyboard-response"",""2"",""20975"",""0.0-2.0"",""5d1511f1e814b800016108a6"",""691f64b829bcd04aca23171c"",""69212340b81b6b2ddd0bd896"",""7764.199999999255"",""<div style = 'font-size: .9vw; line-height: 1vw;'><h1>By answering the following questions, you are participating in a study being performed by cognitive scientists in the Stanford Department of Psychology.<br> <br><strong>***Please Read and press the 'Y' key to consent to this study*** </strong> </h1><h4>Consent for Participation in a Research Study</h4><div style='width: 100%; text-align: center'><div style='display: inline-block; margin: 0 auto; padding: 2vh 5vw; text-align: left'><h2>STUDY TITLE</h2><p>Perceiving Objects and Events</p><h2>RESEARCH STUDY SUMMARY, RISKS, AND BENEFITS</h2><p>Thank you for volunteering to participate in this research study. The purpose of this study is to better understand how we see and how we think. Study activities will include examining simple displays and then responding by answering questions, pressing some keys, or using a computer mouse. Because these are activities that many people already experience hundreds or thousands of times every day, there are no risks involved in this study. The study may have no benefits to you, but it may help the scientific community come to better understand how the human mind works. You must be at least 18 years old to participate. Your participation in this research is voluntary. You may decline to answer any or all of the following questions. You may decline further participation, at any time, without adverse consequences.</p><h2>DURATION</h2><p>If you agree to take part, the study will last approximately <strong>4 minutes</strong>.</p><h2>COSTS AND COMPENSATION</h2><p>There are no costs associated with participation in this study. You will receive <strong>$0.54</strong> for participating.</p><h1>CONFIDENTIALITY</h1><p>Your anonymity is assured; the researchers who have requested your participation will not receive any personal information about you.</p><h2>LEARNING MORE</h2><p>If you have questions about this research, please contact us at stanfordpsych251@gmail.com.</p><h2>INFORMED CONSENT</h2><p>Your participation indicates that you have read and understood this consent form and the information presented and that you agree to be in this study.</p></div></div> </div>"","""",""consent"","""",""y"","""","""","""","""","""","""","""","""","""","""","""","""","""","""","""","""","""","""","""","""","""","""","""","""","""","""","""","""","""","""","""","""","""","""","""","""","""","""","""","""","""","""","""",""""
"""","""","""","""","""",""instructions"",""3"",""45200"",""0.0-3.0"",""5d1511f1e814b800016108a6"",""691f64b829bcd04aca23171c"",""69212340b81b6b2ddd0bd896"",""24220.800000000745"","""","""","""","""","""",""[{""""page_index"""":0,""""viewing_time"""":14055.5},{""""page_index"""":1,""""viewing_time"""":10162.699999999255}]"",""instructions1"","""","""","""","""","""","""","""","""","""","""","""","""","""","""","""","""","""","""","""","""","""","""","""","""","""","""","""","""","""","""","""","""","""","""","""","""","""","""","""","""","""",""""
"""","""","""","""","""",""audio_response"",""4"",""67667"",""0.0-4.0"",""5d1511f1e814b800016108a6"",""691f64b829bcd04aca23171c"",""69212340b81b6b2ddd0bd896"",""67694.40000000224"","""","""","""","""","""","""","""",""{""""aud_check"""":""""Strawberries""""}"",""Strawberries"","""","""","""","""","""","""","""","""","""","""","""","""","""","""","""","""","""","""","""","""","""","""","""","""","""","""","""","""","""","""","""","""","""","""","""","""","""","""","""",""""
"""","""","""","""","""",""fullscreen"",""5"",""75821"",""0.0-6.0"",""5d1511f1e814b800016108a6"",""691f64b829bcd04aca23171c"",""69212340b81b6b2ddd0bd896"","""","""","""","""","""","""","""","""","""","""",""false"",""false"","""","""","""","""","""","""","""","""","""","""","""","""","""","""","""","""","""","""","""","""","""","""","""","""","""","""","""","""","""","""","""","""","""","""","""","""","""",""""
"""","""","""","""","""",""instructions"",""6"",""91093"",""0.0-7.0"",""5d1511f1e814b800016108a6"",""691f64b829bcd04aca23171c"",""69212340b81b6b2ddd0bd896"",""15268.800000000745"","""","""","""","""","""",""[{""""page_index"""":0,""""viewing_time"""":15267.20000000298}]"",""instructions1"","""","""","""","""","""","""","""","""","""","""","""","""","""","""","""","""","""","""","""","""","""","""","""","""","""","""","""","""","""","""","""","""","""","""","""","""","""","""","""","""","""",""""
"""","""","""","""","""",""audio_response"",""7"",""124993"",""0.0-8.0"",""5d1511f1e814b800016108a6"",""691f64b829bcd04aca23171c"",""69212340b81b6b2ddd0bd896"","""","""","""","""","""","""","""","""","""","""","""","""","""","""","""","""","""","""","""","""","""","""","""","""","""","""","""","""","""","""","""","""","""","""","""","""","""","""","""","""","""","""","""","""","""","""","""","""","""",""""
"""","""","""","""","""",""html-slider-response"",""8"",""131830"",""0.0-9.0-0.0"",""5d1511f1e814b800016108a6"",""691f64b829bcd04aca23171c"",""69212340b81b6b2ddd0bd896"",""6826"",""<p>Based on the personal statement you just heard, please answer the following question using the slider below. .<br>(You can click on the appropriate part of the white bar, or drag the blue circle to the appropriate place.) <br><br><b>What is the likelihood that you would hire this person?</b></p><br>"","""","""","""","""","""",""follow_ups"","""","""","""","""",""58"",""hire"","""","""","""","""","""","""","""","""","""","""","""","""","""","""","""","""","""","""","""","""","""","""","""","""","""","""","""","""","""","""","""","""","""","""","""",""""
"""","""","""","""","""",""html-slider-response"",""9"",""136584"",""0.0-9.0-0.1"",""5d1511f1e814b800016108a6"",""691f64b829bcd04aca23171c"",""69212340b81b6b2ddd0bd896"",""4746.400000002235"",""<p>Based on the personal statement you just heard, please answer the following question using the slider below.<br>(You can click on the appropriate part of the white bar, or drag the blue circle to the appropriate place.) <br><br><b>How intelligent is the author of this personal statement?</b></p><br>"","""","""","""","""","""",""follow_ups"","""","""","""","""",""78"",""intelligence"","""","""","""","""","""","""","""","""","""","""","""","""","""","""","""","""","""","""","""","""","""","""","""","""","""","""","""","""","""","""","""","""","""","""","""",""""
"""","""","""","""","""",""survey-html-form"",""10"",""175437"",""0.0-10.0"",""5d1511f1e814b800016108a6"",""691f64b829bcd04aca23171c"",""69212340b81b6b2ddd0bd896"",""38843.5"","""","""","""","""","""","""",""debrief"",""{""""age"""":""""69"""",""""gender"""":""""male"""",""""audio_output"""":""""External Speakers"""",""""testing"""":""""not sure"""",""""audio_problems"""":""""no problems"""",""""attention"""":""""100""""}"","""","""","""","""","""",""69"",""male"",""External Speakers"",""no problems"",""not sure"","""",""100"",""true"","""","""","""","""","""","""","""","""","""","""","""","""","""","""","""","""","""","""","""","""","""","""","""","""","""","""","""",""""
"""","""","""","""","""",""survey-html-form"",""11"",""204709"",""0.0-11.0"",""5d1511f1e814b800016108a6"",""691f64b829bcd04aca23171c"",""69212340b81b6b2ddd0bd896"",""29260.5"","""","""","""","""","""","""",""debrief2"",""{""""hire_exp"""":""""No"""",""""audio_quality"""":""""94"""",""""understandable"""":""""100"""",""""other"""":""""nothing else""""}"","""","""","""","""","""","""","""","""","""","""",""nothing else"","""","""",""94"",""100"",""No"","""","""","""","""","""","""","""","""","""","""","""","""","""","""","""","""","""","""","""","""","""","""","""","""",""""
"""","""","""","""","""",""html-keyboard-response"",""12"",""204776"",""0.0-12.0"",""5d1511f1e814b800016108a6"",""691f64b829bcd04aca23171c"",""69212340b81b6b2ddd0bd896"",""null"","""","""","""","""",""null"","""","""","""","""","""","""","""","""","""","""","""","""","""","""","""","""","""","""","""",""4"",""human"",""false"",""sound_files/human_sm_undistorted.mp3"",""hire-first"",""58"",""6826"","""","""",""78"",""4746.400000002235"","""","""",""69"",""male"",""External Speakers"",""no problems"",""not sure"",""nothing else"",""100"",""94"",""100"",""No"",""true"",""5d1511f1e814b800016108a6_comp_hire_summary""
"""","""","""","""","""",""html-keyboard-response"",""13"",""207782"",""0.0-13.0"",""5d1511f1e814b800016108a6"",""691f64b829bcd04aca23171c"",""69212340b81b6b2ddd0bd896"",""null"",""Saving data ... One moment please..."","""","""","""",""null"","""","""","""","""","""","""","""","""","""","""","""","""","""","""","""","""","""","""","""","""","""","""","""","""","""","""","""","""","""","""","""","""","""","""","""","""","""","""","""","""","""","""","""",""""
",NA,NA,NA,NA,NA,NA,NA,NA,NA,NA,NA,NA,NA,NA,NA,NA,NA,NA,NA,NA,NA,NA,NA,NA,NA
NA,NA,html-keyboard-response,12,380725,0.0-12.0,5,human,FALSE,sound_files/human_sm_undistorted.mp3,intel-first,81,8054.7,76,14682,52,female,Laptop Speakers,None; thank you.,I suspect this experiment was testing how persuasive the word usage of the applicant was to convice responsdents of his qualifications for the job.,"I think the applicant's response was redundant, repeated the same selling points about himself but worded differently. He spoke about himself at a very high level, versus focusing on specific, measurable achievements. But he was okay at selling himself, and would likely be good at product sales as well.",100,100,100,Yes,TRUE
"""success"",""timeout"",""failed_images"",""failed_audio"",""failed_video"",""trial_type"",""trial_index"",""time_elapsed"",""internal_node_id"",""subject"",""prolific_study_id"",""prolific_session_id"",""rt"",""stimulus"",""button_pressed"",""test_part"",""mobile"",""key_press"",""view_history"",""trial_part"",""responses"",""aud_check"",""pointer_error"",""pointer_redo"",""response"",""question"",""age"",""gender"",""audio_output"",""audio_problems"",""testing"",""other"",""attention"",""block_data"",""audio_quality"",""understandable"",""hire_exp"",""condition"",""voice_type"",""distorted_audio"",""sound_file"",""question_order"",""hire"",""hire_rt"",""hire_values"",""hire_rts"",""intelligence"",""intelligence_rt"",""intelligence_values"",""intelligence_rts"",""debrief_age"",""debrief_gender"",""debrief_audio_output"",""debrief_audio_problems"",""debrief_testing"",""debrief_other"",""debrief_attention"",""debrief_audio_quality"",""debrief_understandable"",""debrief_hire_exp"",""data_summary"",""participant_id""
""true"",""false"",""[]"",""[]"",""[]"",""preload"",""0"",""547"",""0.0-0.0"",""671fc1eba76984702b0b4b68"",""691f64b829bcd04aca23171c"",""69213fdeee990a2ecd0ccc94"","""","""","""","""","""","""","""","""","""","""","""","""","""","""","""","""","""","""","""","""","""","""","""","""","""","""","""","""","""","""","""","""","""","""","""","""","""","""","""","""","""","""","""","""","""","""","""","""","""",""""
"""","""","""","""","""",""html-button-response"",""1"",""8089"",""0.0-1.0"",""671fc1eba76984702b0b4b68"",""691f64b829bcd04aca23171c"",""69213fdeee990a2ecd0ccc94"",""7540.5"",""Please note that this experiment is only designed to work from a computer or laptop.  Please <strong> do not </strong> continue if you are using a phone, tablet, or other mobile device.  If you are on a phone, tablet or other mobile device you will need to return to prolific <br>and click """"stop without completing"""".  <br> <br> If you are currently seeing this page from a laptop or computer, please click on the 'Continue' button.<br><br>"",""0"",""check_device"",""false"","""","""","""","""","""","""","""","""","""","""","""","""","""","""","""","""","""","""","""","""","""","""","""","""","""","""","""","""","""","""","""","""","""","""","""","""","""","""","""","""","""","""","""","""",""""
"""","""","""","""","""",""html-keyboard-response"",""2"",""16573"",""0.0-2.0"",""671fc1eba76984702b0b4b68"",""691f64b829bcd04aca23171c"",""69213fdeee990a2ecd0ccc94"",""8482.899999976158"",""<div style = 'font-size: .9vw; line-height: 1vw;'><h1>By answering the following questions, you are participating in a study being performed by cognitive scientists in the Stanford Department of Psychology.<br> <br><strong>***Please Read and press the 'Y' key to consent to this study*** </strong> </h1><h4>Consent for Participation in a Research Study</h4><div style='width: 100%; text-align: center'><div style='display: inline-block; margin: 0 auto; padding: 2vh 5vw; text-align: left'><h2>STUDY TITLE</h2><p>Perceiving Objects and Events</p><h2>RESEARCH STUDY SUMMARY, RISKS, AND BENEFITS</h2><p>Thank you for volunteering to participate in this research study. The purpose of this study is to better understand how we see and how we think. Study activities will include examining simple displays and then responding by answering questions, pressing some keys, or using a computer mouse. Because these are activities that many people already experience hundreds or thousands of times every day, there are no risks involved in this study. The study may have no benefits to you, but it may help the scientific community come to better understand how the human mind works. You must be at least 18 years old to participate. Your participation in this research is voluntary. You may decline to answer any or all of the following questions. You may decline further participation, at any time, without adverse consequences.</p><h2>DURATION</h2><p>If you agree to take part, the study will last approximately <strong>4 minutes</strong>.</p><h2>COSTS AND COMPENSATION</h2><p>There are no costs associated with participation in this study. You will receive <strong>$0.54</strong> for participating.</p><h1>CONFIDENTIALITY</h1><p>Your anonymity is assured; the researchers who have requested your participation will not receive any personal information about you.</p><h2>LEARNING MORE</h2><p>If you have questions about this research, please contact us at stanfordpsych251@gmail.com.</p><h2>INFORMED CONSENT</h2><p>Your participation indicates that you have read and understood this consent form and the information presented and that you agree to be in this study.</p></div></div> </div>"","""",""consent"","""",""y"","""","""","""","""","""","""","""","""","""","""","""","""","""","""","""","""","""","""","""","""","""","""","""","""","""","""","""","""","""","""","""","""","""","""","""","""","""","""","""","""","""","""","""",""""
"""","""","""","""","""",""instructions"",""3"",""41891"",""0.0-3.0"",""671fc1eba76984702b0b4b68"",""691f64b829bcd04aca23171c"",""69213fdeee990a2ecd0ccc94"",""25318"","""","""","""","""","""",""[{""""page_index"""":0,""""viewing_time"""":12937.100000023842},{""""page_index"""":1,""""viewing_time"""":12380.5}]"",""instructions1"","""","""","""","""","""","""","""","""","""","""","""","""","""","""","""","""","""","""","""","""","""","""","""","""","""","""","""","""","""","""","""","""","""","""","""","""","""","""","""","""","""",""""
"""","""","""","""","""",""audio_response"",""4"",""60831"",""0.0-4.0"",""671fc1eba76984702b0b4b68"",""691f64b829bcd04aca23171c"",""69213fdeee990a2ecd0ccc94"",""60838.10000002384"","""","""","""","""","""","""","""",""{""""aud_check"""":""""Strawberries""""}"",""Strawberries"","""","""","""","""","""","""","""","""","""","""","""","""","""","""","""","""","""","""","""","""","""","""","""","""","""","""","""","""","""","""","""","""","""","""","""","""","""","""","""",""""
"""","""","""","""","""",""fullscreen"",""5"",""73006"",""0.0-6.0"",""671fc1eba76984702b0b4b68"",""691f64b829bcd04aca23171c"",""69213fdeee990a2ecd0ccc94"","""","""","""","""","""","""","""","""","""","""",""false"",""false"","""","""","""","""","""","""","""","""","""","""","""","""","""","""","""","""","""","""","""","""","""","""","""","""","""","""","""","""","""","""","""","""","""","""","""","""","""",""""
"""","""","""","""","""",""instructions"",""6"",""88116"",""0.0-7.0"",""671fc1eba76984702b0b4b68"",""691f64b829bcd04aca23171c"",""69213fdeee990a2ecd0ccc94"",""15109.299999952316"","""","""","""","""","""",""[{""""page_index"""":0,""""viewing_time"""":15108.899999976158}]"",""instructions1"","""","""","""","""","""","""","""","""","""","""","""","""","""","""","""","""","""","""","""","""","""","""","""","""","""","""","""","""","""","""","""","""","""","""","""","""","""","""","""","""","""",""""
"""","""","""","""","""",""audio_response"",""7"",""122618"",""0.0-8.0"",""671fc1eba76984702b0b4b68"",""691f64b829bcd04aca23171c"",""69213fdeee990a2ecd0ccc94"","""","""","""","""","""","""","""","""","""","""","""","""","""","""","""","""","""","""","""","""","""","""","""","""","""","""","""","""","""","""","""","""","""","""","""","""","""","""","""","""","""","""","""","""","""","""","""","""","""",""""
"""","""","""","""","""",""html-slider-response"",""8"",""137301"",""0.0-9.0-0.0"",""671fc1eba76984702b0b4b68"",""691f64b829bcd04aca23171c"",""69213fdeee990a2ecd0ccc94"",""14682"",""<p>Based on the personal statement you just heard, please answer the following question using the slider below.<br>(You can click on the appropriate part of the white bar, or drag the blue circle to the appropriate place.) <br><br><b>How intelligent is the author of this personal statement?</b></p><br>"","""","""","""","""","""",""follow_ups"","""","""","""","""",""76"",""intelligence"","""","""","""","""","""","""","""","""","""","""","""","""","""","""","""","""","""","""","""","""","""","""","""","""","""","""","""","""","""","""","""","""","""","""","""",""""
"""","""","""","""","""",""html-slider-response"",""9"",""145357"",""0.0-9.0-0.1"",""671fc1eba76984702b0b4b68"",""691f64b829bcd04aca23171c"",""69213fdeee990a2ecd0ccc94"",""8054.700000047684"",""<p>Based on the personal statement you just heard, please answer the following question using the slider below. .<br>(You can click on the appropriate part of the white bar, or drag the blue circle to the appropriate place.) <br><br><b>What is the likelihood that you would hire this person?</b></p><br>"","""","""","""","""","""",""follow_ups"","""","""","""","""",""81"",""hire"","""","""","""","""","""","""","""","""","""","""","""","""","""","""","""","""","""","""","""","""","""","""","""","""","""","""","""","""","""","""","""","""","""","""","""",""""
"""","""","""","""","""",""survey-html-form"",""10"",""239213"",""0.0-10.0"",""671fc1eba76984702b0b4b68"",""691f64b829bcd04aca23171c"",""69213fdeee990a2ecd0ccc94"",""93855.39999997616"","""","""","""","""","""","""",""debrief"",""{""""age"""":""""52"""",""""gender"""":""""female"""",""""audio_output"""":""""Laptop Speakers"""",""""testing"""":""""I suspect this experiment was testing how persuasive the word usage of the applicant was to convice responsdents of his qualifications for the job. """",""""audio_problems"""":""""None; thank you."""",""""attention"""":""""100""""}"","""","""","""","""","""",""52"",""female"",""Laptop Speakers"",""None; thank you."",""I suspect this experiment was testing how persuasive the word usage of the applicant was to convice responsdents of his qualifications for the job. "","""",""100"",""true"","""","""","""","""","""","""","""","""","""","""","""","""","""","""","""","""","""","""","""","""","""","""","""","""","""","""","""",""""
"""","""","""","""","""",""survey-html-form"",""11"",""380674"",""0.0-11.0"",""671fc1eba76984702b0b4b68"",""691f64b829bcd04aca23171c"",""69213fdeee990a2ecd0ccc94"",""141459.69999992847"","""","""","""","""","""","""",""debrief2"",""{""""hire_exp"""":""""Yes"""",""""audio_quality"""":""""100"""",""""understandable"""":""""100"""",""""other"""":""""I think the applicant's response was redundant, repeated the same selling points about himself but worded differently. He spoke about himself at a very high level, versus focusing on specific, measurable achievements. But he was okay at selling himself, and would likely be good at product sales as well. """"}"","""","""","""","""","""","""","""","""","""","""",""I think the applicant's response was redundant, repeated the same selling points about himself but worded differently. He spoke about himself at a very high level, versus focusing on specific, measurable achievements. But he was okay at selling himself, and would likely be good at product sales as well. "","""","""",""100"",""100"",""Yes"","""","""","""","""","""","""","""","""","""","""","""","""","""","""","""","""","""","""","""","""","""","""","""","""",""""
"""","""","""","""","""",""html-keyboard-response"",""12"",""380725"",""0.0-12.0"",""671fc1eba76984702b0b4b68"",""691f64b829bcd04aca23171c"",""69213fdeee990a2ecd0ccc94"",""null"","""","""","""","""",""null"","""","""","""","""","""","""","""","""","""","""","""","""","""","""","""","""","""","""","""",""5"",""human"",""false"",""sound_files/human_sm_undistorted.mp3"",""intel-first"",""81"",""8054.700000047684"","""","""",""76"",""14682"","""","""",""52"",""female"",""Laptop Speakers"",""None; thank you."",""I suspect this experiment was testing how persuasive the word usage of the applicant was to convice responsdents of his qualifications for the job. "",""I think the applicant's response was redundant, repeated the same selling points about himself but worded differently. He spoke about himself at a very high level, versus focusing on specific, measurable achievements. But he was okay at selling himself, and would likely be good at product sales as well. "",""100"",""100"",""100"",""Yes"",""true"",""671fc1eba76984702b0b4b68_comp_hire_summary""
"""","""","""","""","""",""html-keyboard-response"",""13"",""383743"",""0.0-13.0"",""671fc1eba76984702b0b4b68"",""691f64b829bcd04aca23171c"",""69213fdeee990a2ecd0ccc94"",""null"",""Saving data ... One moment please..."","""","""","""",""null"","""","""","""","""","""","""","""","""","""","""","""","""","""","""","""","""","""","""","""","""","""","""","""","""","""","""","""","""","""","""","""","""","""","""","""","""","""","""","""","""","""","""","""",""""
",NA,NA,NA,NA,NA,NA,NA,NA,NA,NA,NA,NA,NA,NA,NA,NA,NA,NA,NA,NA,NA,NA,NA,NA,NA
