rt,stimulus,key_press,trial_type,trial_index,time_elapsed,internal_node_id,subject,prolific_study_id,prolific_session_id,distorted_audio,sound_file,hire,response_rt,debrief_age,debrief_gender,debrief_audio_output,debrief_audio_problems,debrief_testing,debrief_other,debrief_attention,debrief_audio_quality,debrief_understandable,debrief_hire_exp,data_summary,participant_id,,,,,
,,,html-keyboard-response,11,312778,0.0-12.0,11-1-20:36:27,,,TRUE,sound_files/matthew_sales_short_distort4.mp3,79,7895.8,70,male,Laptop Speakers,no,Careful listening. I i THINK IT WAS TESTING MY ATTENTION TO DETAIL AND ABILITY TO RECALL WHAT i HEARD,THE MECHANICAL TONE OF VOICE,91,29,93,Yes,TRUE,11-1-20:36:27_comp_hire_summary,,,,,
11-1-20:36:27_comp_hire_all_data,"""success"",""timeout"",""failed_images"",""failed_audio"",""failed_video"",""trial_type"",""trial_index"",""time_elapsed"",""internal_node_id"",""subject"",""prolific_study_id"",""prolific_session_id"",""rt"",""stimulus"",""button_pressed"",""test_part"",""mobile"",""key_press"",""view_history"",""trial_part"",""responses"",""aud_check"",""pointer_error"",""pointer_redo"",""response"",""question"",""age"",""gender"",""audio_output"",""audio_problems"",""testing"",""other"",""attention"",""block_data"",""audio_quality"",""understandable"",""hire_exp"",""distorted_audio"",""sound_file"",""hire"",""response_rt"",""hire_values"",""hire_rts"",""debrief_age"",""debrief_gender"",""debrief_audio_output"",""debrief_audio_problems"",""debrief_testing"",""debrief_other"",""debrief_attention"",""debrief_audio_quality"",""debrief_understandable"",""debrief_hire_exp"",""data_summary"",""participant_id""
""true"",""false"",""[]"",""[]"",""[]"",""preload"",""0"",""569"",""0.0-0.0"",""11-1-20:36:27"","""","""","""","""","""","""","""","""","""","""","""","""","""","""","""","""","""","""","""","""","""","""","""","""","""","""","""","""","""","""","""","""","""","""","""","""","""","""","""","""","""","""","""","""",""""
"""","""","""","""","""",""html-button-response"",""1"",""6437"",""0.0-1.0"",""11-1-20:36:27"","""","""",""5864.800000011921"",""Please note that this experiment is only designed to work from a computer or laptop.  Please <strong> do not </strong> continue if you are using a phone, tablet, or other mobile device.  If you are on a phone, tablet or other mobile device you will need to return to prolific <br>and click """"stop without completing"""".  <br> <br> If you are currently seeing this page from a laptop or computer, please click on the 'Continue' button.<br><br>"",""0"",""check_device"",""false"","""","""","""","""","""","""","""","""","""","""","""","""","""","""","""","""","""","""","""","""","""","""","""","""","""","""","""","""","""","""","""","""","""","""","""","""","""",""""
"""","""","""","""","""",""html-keyboard-response"",""2"",""30958"",""0.0-2.0"",""11-1-20:36:27"","""","""",""24520.30000001192"",""<div style = 'font-size: .9vw; line-height: 1vw;'><h1>THIS IS A FRIENDS & FAMILY PILOT STUDY! Thank you in advance for your feedback. You will be compensated with gratitude :)<br> <br><strong>***Please Read and press the 'Y' key to consent to this study*** </strong> </h1><h4>Consent for Participation in a Research Study</h4><div style='width: 100%; text-align: center'><div style='display: inline-block; margin: 0 auto; padding: 2vh 5vw; text-align: left'><h2>STUDY TITLE</h2><p>Perceiving Objects and Events</p><h2>RESEARCH STUDY SUMMARY, RISKS, AND BENEFITS</h2><p>Thank you for volunteering to participate in this PILOT research study. The purpose of this study is to better understand how we see and how we think. Study activities will include examining simple displays and then responding by answering questions, pressing some keys, or using a computer mouse. Because these are activities that many people already experience hundreds or thousands of times every day, there are no risks involved in this study. The study may have no benefits to you, but it may help the scientific community come to better understand how the human mind works. Taking part in this study is your choice. You can choose to take part, or you can choose not to take part in this study. You can also change your mind at any time, with no penalty.</p><h2>DURATION</h2><p>If you agree to take part, the study will last approximately <strong>3 minutes</strong>.</p><h2>COSTS AND COMPENSATION</h2><p>There are no costs associated with participation in this study. You will receive <strong>$0.40</strong> for participating.</p><h1>CONFIDENTIALITY</h1><p>No personally identifying information will be collected, so your participation will be anonymous. Your data will be pooled with those from other participants, and may be included in scientific publications and uploaded to public data repositories.</p><h2>LEARNING MORE</h2><p>If you have questions about this study, you may contact your experimenter David Barnstone at dbarnsto@stanford.edu. If you have questions about your rights as a research participant, or you have complaints about this research, you can contact the STANFORD IRB CONTACT INFORMATION GOES HERE.</p><h2>INFORMED CONSENT</h2><p>Your participation indicates that you have read and understood this consent form and the information presented and that you agree to be in this study.</p></div></div> </div>"","""",""consent"","""",""y"","""","""","""","""","""","""","""","""","""","""","""","""","""","""","""","""","""","""","""","""","""","""","""","""","""","""","""","""","""","""","""","""","""","""","""","""",""""
"""","""","""","""","""",""instructions"",""3"",""55353"",""0.0-3.0"",""11-1-20:36:27"","""","""",""24394.899999976158"","""","""","""","""","""",""[{""""page_index"""":0,""""viewing_time"""":9226.800000011921},{""""page_index"""":1,""""viewing_time"""":15167.399999976158}]"",""instructions1"","""","""","""","""","""","""","""","""","""","""","""","""","""","""","""","""","""","""","""","""","""","""","""","""","""","""","""","""","""","""","""","""","""","""",""""
"""","""","""","""","""",""audio_response"",""4"",""73388"",""0.0-4.0"",""11-1-20:36:27"","""","""",""73431.39999997616"","""","""","""","""","""","""","""",""{""""aud_check"""":""""Strawberries""""}"",""Strawberries"","""","""","""","""","""","""","""","""","""","""","""","""","""","""","""","""","""","""","""","""","""","""","""","""","""","""","""","""","""","""","""","""",""""
"""","""","""","""","""",""fullscreen"",""5"",""82637"",""0.0-6.0"",""11-1-20:36:27"","""","""","""","""","""","""","""","""","""","""","""","""",""false"",""false"","""","""","""","""","""","""","""","""","""","""","""","""","""","""","""","""","""","""","""","""","""","""","""","""","""","""","""","""","""","""",""""
"""","""","""","""","""",""instructions"",""6"",""94971"",""0.0-7.0"",""11-1-20:36:27"","""","""",""12334.100000023842"","""","""","""","""","""",""[{""""page_index"""":0,""""viewing_time"""":12333.800000011921}]"",""instructions1"","""","""","""","""","""","""","""","""","""","""","""","""","""","""","""","""","""","""","""","""","""","""","""","""","""","""","""","""","""","""","""","""","""","""",""""
"""","""","""","""","""",""audio_response"",""7"",""128321"",""0.0-8.0"",""11-1-20:36:27"","""","""","""","""","""","""","""","""","""","""","""","""","""","""","""","""","""","""","""","""","""","""","""","""","""","""","""","""","""","""","""","""","""","""","""","""","""","""","""","""","""","""","""","""",""""
"""","""","""","""","""",""html-slider-response"",""8"",""136220"",""0.0-9.0-0.0"",""11-1-20:36:27"","""","""",""7895.799999952316"",""<p>Based on the personal statement you just heard, please answer the following question using the slider below. .<br>(You can click on the appropriate part of the white bar, or drag the blue circle to the appropriate place.) <br><br><b>What is the likelihood that you would hire this person?</b></p><br>"","""","""","""","""","""",""follow_ups"","""","""","""","""",""79"",""hire"","""","""","""","""","""","""","""","""","""","""","""","""","""","""","""","""","""","""","""","""","""","""","""","""","""","""","""","""",""""
"""","""","""","""","""",""survey-html-form"",""9"",""266965"",""0.0-10.0"",""11-1-20:36:27"","""","""",""130742.5"","""","""","""","""","""","""",""debrief"",""{""""age"""":""""70"""",""""gender"""":""""male"""",""""audio_output"""":""""Laptop Speakers"""",""""testing"""":""""Careful listening. I i THINK IT WAS TESTING MY ATTENTION TO DETAIL AND ABILITY TO RECALL WHAT i HEARD"""",""""audio_problems"""":""""no"""",""""attention"""":""""91""""}"","""","""","""","""","""",""70"",""male"",""Laptop Speakers"",""no"",""Careful listening. I i THINK IT WAS TESTING MY ATTENTION TO DETAIL AND ABILITY TO RECALL WHAT i HEARD"","""",""91"",""true"","""","""","""","""","""","""","""","""","""","""","""","""","""","""","""","""","""","""","""","""",""""
"""","""","""","""","""",""survey-html-form"",""10"",""312714"",""0.0-11.0"",""11-1-20:36:27"","""","""",""45747.09999996424"","""","""","""","""","""","""",""debrief2"",""{""""hire_exp"""":""""Yes"""",""""audio_quality"""":""""29"""",""""understandable"""":""""93"""",""""other"""":""""THE MECHANICAL TONE OF VOICE""""}"","""","""","""","""","""","""","""","""","""","""",""THE MECHANICAL TONE OF VOICE"","""","""",""29"",""93"",""Yes"","""","""","""","""","""","""","""","""","""","""","""","""","""","""","""","""","""",""""
"""","""","""","""","""",""html-keyboard-response"",""11"",""312778"",""0.0-12.0"",""11-1-20:36:27"","""","""",""null"","""","""","""","""",""null"","""","""","""","""","""","""","""","""","""","""","""","""","""","""","""","""","""","""","""",""true"",""sound_files/matthew_sales_short_distort4.mp3"",""79"",""7895.799999952316"","""","""",""70"",""male"",""Laptop Speakers"",""no"",""Careful listening. I i THINK IT WAS TESTING MY ATTENTION TO DETAIL AND ABILITY TO RECALL WHAT i HEARD"",""THE MECHANICAL TONE OF VOICE"",""91"",""29"",""93"",""Yes"",""true"",""11-1-20:36:27_comp_hire_summary""
"""","""","""","""","""",""html-keyboard-response"",""12"",""315790"",""0.0-13.0"",""11-1-20:36:27"","""","""",""null"",""Saving data ... One moment please..."","""","""","""",""null"","""","""","""","""","""","""","""","""","""","""","""","""","""","""","""","""","""","""","""","""","""","""","""","""","""","""","""","""","""","""","""","""","""","""","""","""",""""
",,,,,,,,,,,,,,,,,,,,,,,,,,,,,
,,,html-keyboard-response,11,410634,0.0-12.0,11-1-20:57:19,,,TRUE,sound_files/matthew_sales_short_distort4.mp3,15,16203.7,70,female,Laptop Speakers,The second audio clip was difficult to understand,How well I can follow instructions,Nothing to add,85,17,76,Yes,TRUE,11-1-20:57:19_comp_hire_summary,,,,,
11-1-20:57:19_comp_hire_all_data,"""success"",""timeout"",""failed_images"",""failed_audio"",""failed_video"",""trial_type"",""trial_index"",""time_elapsed"",""internal_node_id"",""subject"",""prolific_study_id"",""prolific_session_id"",""rt"",""stimulus"",""button_pressed"",""test_part"",""mobile"",""key_press"",""view_history"",""trial_part"",""responses"",""aud_check"",""pointer_error"",""pointer_redo"",""response"",""question"",""age"",""gender"",""audio_output"",""audio_problems"",""testing"",""other"",""attention"",""block_data"",""audio_quality"",""understandable"",""hire_exp"",""distorted_audio"",""sound_file"",""hire"",""response_rt"",""hire_values"",""hire_rts"",""debrief_age"",""debrief_gender"",""debrief_audio_output"",""debrief_audio_problems"",""debrief_testing"",""debrief_other"",""debrief_attention"",""debrief_audio_quality"",""debrief_understandable"",""debrief_hire_exp"",""data_summary"",""participant_id""
""true"",""false"",""[]"",""[]"",""[]"",""preload"",""0"",""686"",""0.0-0.0"",""11-1-20:57:19"","""","""","""","""","""","""","""","""","""","""","""","""","""","""","""","""","""","""","""","""","""","""","""","""","""","""","""","""","""","""","""","""","""","""","""","""","""","""","""","""","""","""","""","""",""""
"""","""","""","""","""",""html-button-response"",""1"",""12181"",""0.0-1.0"",""11-1-20:57:19"","""","""",""11493.399999976158"",""Please note that this experiment is only designed to work from a computer or laptop.  Please <strong> do not </strong> continue if you are using a phone, tablet, or other mobile device.  If you are on a phone, tablet or other mobile device you will need to return to prolific <br>and click """"stop without completing"""".  <br> <br> If you are currently seeing this page from a laptop or computer, please click on the 'Continue' button.<br><br>"",""0"",""check_device"",""false"","""","""","""","""","""","""","""","""","""","""","""","""","""","""","""","""","""","""","""","""","""","""","""","""","""","""","""","""","""","""","""","""","""","""","""","""","""",""""
"""","""","""","""","""",""html-keyboard-response"",""2"",""61526"",""0.0-2.0"",""11-1-20:57:19"","""","""",""49342.800000071526"",""<div style = 'font-size: .9vw; line-height: 1vw;'><h1>THIS IS A FRIENDS & FAMILY PILOT STUDY! Thank you in advance for your feedback. You will be compensated with gratitude :)<br> <br><strong>***Please Read and press the 'Y' key to consent to this study*** </strong> </h1><h4>Consent for Participation in a Research Study</h4><div style='width: 100%; text-align: center'><div style='display: inline-block; margin: 0 auto; padding: 2vh 5vw; text-align: left'><h2>STUDY TITLE</h2><p>Perceiving Objects and Events</p><h2>RESEARCH STUDY SUMMARY, RISKS, AND BENEFITS</h2><p>Thank you for volunteering to participate in this PILOT research study. The purpose of this study is to better understand how we see and how we think. Study activities will include examining simple displays and then responding by answering questions, pressing some keys, or using a computer mouse. Because these are activities that many people already experience hundreds or thousands of times every day, there are no risks involved in this study. The study may have no benefits to you, but it may help the scientific community come to better understand how the human mind works. Taking part in this study is your choice. You can choose to take part, or you can choose not to take part in this study. You can also change your mind at any time, with no penalty.</p><h2>DURATION</h2><p>If you agree to take part, the study will last approximately <strong>3 minutes</strong>.</p><h2>COSTS AND COMPENSATION</h2><p>There are no costs associated with participation in this study. You will receive <strong>$0.40</strong> for participating.</p><h1>CONFIDENTIALITY</h1><p>No personally identifying information will be collected, so your participation will be anonymous. Your data will be pooled with those from other participants, and may be included in scientific publications and uploaded to public data repositories.</p><h2>LEARNING MORE</h2><p>If you have questions about this study, you may contact your experimenter David Barnstone at dbarnsto@stanford.edu. If you have questions about your rights as a research participant, or you have complaints about this research, you can contact the STANFORD IRB CONTACT INFORMATION GOES HERE.</p><h2>INFORMED CONSENT</h2><p>Your participation indicates that you have read and understood this consent form and the information presented and that you agree to be in this study.</p></div></div> </div>"","""",""consent"","""",""y"","""","""","""","""","""","""","""","""","""","""","""","""","""","""","""","""","""","""","""","""","""","""","""","""","""","""","""","""","""","""","""","""","""","""","""","""",""""
"""","""","""","""","""",""instructions"",""3"",""116003"",""0.0-3.0"",""11-1-20:57:19"","""","""",""54475.39999997616"","""","""","""","""","""",""[{""""page_index"""":0,""""viewing_time"""":12765.799999952316},{""""page_index"""":1,""""viewing_time"""":41709.10000002384}]"",""instructions1"","""","""","""","""","""","""","""","""","""","""","""","""","""","""","""","""","""","""","""","""","""","""","""","""","""","""","""","""","""","""","""","""","""","""",""""
"""","""","""","""","""",""audio_response"",""4"",""144285"",""0.0-4.0"",""11-1-20:57:19"","""","""",""144289.29999995232"","""","""","""","""","""","""","""",""{""""aud_check"""":""""Strawberries""""}"",""Strawberries"","""","""","""","""","""","""","""","""","""","""","""","""","""","""","""","""","""","""","""","""","""","""","""","""","""","""","""","""","""","""","""","""",""""
"""","""","""","""","""",""fullscreen"",""5"",""161278"",""0.0-6.0"",""11-1-20:57:19"","""","""","""","""","""","""","""","""","""","""","""","""",""false"",""false"","""","""","""","""","""","""","""","""","""","""","""","""","""","""","""","""","""","""","""","""","""","""","""","""","""","""","""","""","""","""",""""
"""","""","""","""","""",""instructions"",""6"",""186713"",""0.0-7.0"",""11-1-20:57:19"","""","""",""25434.199999928474"","""","""","""","""","""",""[{""""page_index"""":0,""""viewing_time"""":25433.799999952316}]"",""instructions1"","""","""","""","""","""","""","""","""","""","""","""","""","""","""","""","""","""","""","""","""","""","""","""","""","""","""","""","""","""","""","""","""","""","""",""""
"""","""","""","""","""",""audio_response"",""7"",""219838"",""0.0-8.0"",""11-1-20:57:19"","""","""","""","""","""","""","""","""","""","""","""","""","""","""","""","""","""","""","""","""","""","""","""","""","""","""","""","""","""","""","""","""","""","""","""","""","""","""","""","""","""","""","""","""",""""
"""","""","""","""","""",""html-slider-response"",""8"",""236044"",""0.0-9.0-0.0"",""11-1-20:57:19"","""","""",""16203.699999928474"",""<p>Based on the personal statement you just heard, please answer the following question using the slider below. .<br>(You can click on the appropriate part of the white bar, or drag the blue circle to the appropriate place.) <br><br><b>What is the likelihood that you would hire this person?</b></p><br>"","""","""","""","""","""",""follow_ups"","""","""","""","""",""15"",""hire"","""","""","""","""","""","""","""","""","""","""","""","""","""","""","""","""","""","""","""","""","""","""","""","""","""","""","""","""",""""
"""","""","""","""","""",""survey-html-form"",""9"",""334930"",""0.0-10.0"",""11-1-20:57:19"","""","""",""98884.10000002384"","""","""","""","""","""","""",""debrief"",""{""""age"""":""""70"""",""""gender"""":""""female"""",""""audio_output"""":""""Laptop Speakers"""",""""testing"""":""""How well I can follow instructions"""",""""audio_problems"""":""""The second audio clip was difficult to understand"""",""""attention"""":""""85""""}"","""","""","""","""","""",""70"",""female"",""Laptop Speakers"",""The second audio clip was difficult to understand"",""How well I can follow instructions"","""",""85"",""true"","""","""","""","""","""","""","""","""","""","""","""","""","""","""","""","""","""","""","""","""",""""
"""","""","""","""","""",""survey-html-form"",""10"",""410579"",""0.0-11.0"",""11-1-20:57:19"","""","""",""75647.5"","""","""","""","""","""","""",""debrief2"",""{""""hire_exp"""":""""Yes"""",""""audio_quality"""":""""17"""",""""understandable"""":""""76"""",""""other"""":""""Nothing to add""""}"","""","""","""","""","""","""","""","""","""","""",""Nothing to add"","""","""",""17"",""76"",""Yes"","""","""","""","""","""","""","""","""","""","""","""","""","""","""","""","""","""",""""
"""","""","""","""","""",""html-keyboard-response"",""11"",""410634"",""0.0-12.0"",""11-1-20:57:19"","""","""",""null"","""","""","""","""",""null"","""","""","""","""","""","""","""","""","""","""","""","""","""","""","""","""","""","""","""",""true"",""sound_files/matthew_sales_short_distort4.mp3"",""15"",""16203.699999928474"","""","""",""70"",""female"",""Laptop Speakers"",""The second audio clip was difficult to understand"",""How well I can follow instructions"",""Nothing to add"",""85"",""17"",""76"",""Yes"",""true"",""11-1-20:57:19_comp_hire_summary""
"""","""","""","""","""",""html-keyboard-response"",""12"",""413645"",""0.0-13.0"",""11-1-20:57:19"","""","""",""null"",""Saving data ... One moment please..."","""","""","""",""null"","""","""","""","""","""","""","""","""","""","""","""","""","""","""","""","""","""","""","""","""","""","""","""","""","""","""","""","""","""","""","""","""","""","""","""","""",""""
",,,,,,,,,,,,,,,,,,,,,,,,,,,,,
,,,html-keyboard-response,11,251851,0.0-12.0,11-1-21:2:31,,,TRUE,sound_files/matthew_sales_short_distort4.mp3,100,9413.1,36,female,Laptop Speakers,"I had the tv on, but I do feel like I was concentrating",my guess is that we typically listen for something in particular but perhaps we are missing certain details,"the voice was robotic so it would have been easier to focus with a more ""normal"" voice",84,50,100,Yes,TRUE,11-1-21:2:31_comp_hire_summary,,,,,
11-1-21:2:31_comp_hire_all_data,"""success"",""timeout"",""failed_images"",""failed_audio"",""failed_video"",""trial_type"",""trial_index"",""time_elapsed"",""internal_node_id"",""subject"",""prolific_study_id"",""prolific_session_id"",""rt"",""stimulus"",""button_pressed"",""test_part"",""mobile"",""key_press"",""view_history"",""trial_part"",""responses"",""aud_check"",""pointer_error"",""pointer_redo"",""response"",""question"",""age"",""gender"",""audio_output"",""audio_problems"",""testing"",""other"",""attention"",""block_data"",""audio_quality"",""understandable"",""hire_exp"",""distorted_audio"",""sound_file"",""hire"",""response_rt"",""hire_values"",""hire_rts"",""debrief_age"",""debrief_gender"",""debrief_audio_output"",""debrief_audio_problems"",""debrief_testing"",""debrief_other"",""debrief_attention"",""debrief_audio_quality"",""debrief_understandable"",""debrief_hire_exp"",""data_summary"",""participant_id""
""true"",""false"",""[]"",""[]"",""[]"",""preload"",""0"",""636"",""0.0-0.0"",""11-1-21:2:31"","""","""","""","""","""","""","""","""","""","""","""","""","""","""","""","""","""","""","""","""","""","""","""","""","""","""","""","""","""","""","""","""","""","""","""","""","""","""","""","""","""","""","""","""",""""
"""","""","""","""","""",""html-button-response"",""1"",""9253"",""0.0-1.0"",""11-1-21:2:31"","""","""",""8615.70000000298"",""Please note that this experiment is only designed to work from a computer or laptop.  Please <strong> do not </strong> continue if you are using a phone, tablet, or other mobile device.  If you are on a phone, tablet or other mobile device you will need to return to prolific <br>and click """"stop without completing"""".  <br> <br> If you are currently seeing this page from a laptop or computer, please click on the 'Continue' button.<br><br>"",""0"",""check_device"",""false"","""","""","""","""","""","""","""","""","""","""","""","""","""","""","""","""","""","""","""","""","""","""","""","""","""","""","""","""","""","""","""","""","""","""","""","""","""",""""
"""","""","""","""","""",""html-keyboard-response"",""2"",""41945"",""0.0-2.0"",""11-1-21:2:31"","""","""",""32691.20000000298"",""<div style = 'font-size: .9vw; line-height: 1vw;'><h1>THIS IS A FRIENDS & FAMILY PILOT STUDY! Thank you in advance for your feedback. You will be compensated with gratitude :)<br> <br><strong>***Please Read and press the 'Y' key to consent to this study*** </strong> </h1><h4>Consent for Participation in a Research Study</h4><div style='width: 100%; text-align: center'><div style='display: inline-block; margin: 0 auto; padding: 2vh 5vw; text-align: left'><h2>STUDY TITLE</h2><p>Perceiving Objects and Events</p><h2>RESEARCH STUDY SUMMARY, RISKS, AND BENEFITS</h2><p>Thank you for volunteering to participate in this PILOT research study. The purpose of this study is to better understand how we see and how we think. Study activities will include examining simple displays and then responding by answering questions, pressing some keys, or using a computer mouse. Because these are activities that many people already experience hundreds or thousands of times every day, there are no risks involved in this study. The study may have no benefits to you, but it may help the scientific community come to better understand how the human mind works. Taking part in this study is your choice. You can choose to take part, or you can choose not to take part in this study. You can also change your mind at any time, with no penalty.</p><h2>DURATION</h2><p>If you agree to take part, the study will last approximately <strong>3 minutes</strong>.</p><h2>COSTS AND COMPENSATION</h2><p>There are no costs associated with participation in this study. You will receive <strong>$0.40</strong> for participating.</p><h1>CONFIDENTIALITY</h1><p>No personally identifying information will be collected, so your participation will be anonymous. Your data will be pooled with those from other participants, and may be included in scientific publications and uploaded to public data repositories.</p><h2>LEARNING MORE</h2><p>If you have questions about this study, you may contact your experimenter David Barnstone at dbarnsto@stanford.edu. If you have questions about your rights as a research participant, or you have complaints about this research, you can contact the STANFORD IRB CONTACT INFORMATION GOES HERE.</p><h2>INFORMED CONSENT</h2><p>Your participation indicates that you have read and understood this consent form and the information presented and that you agree to be in this study.</p></div></div> </div>"","""",""consent"","""",""y"","""","""","""","""","""","""","""","""","""","""","""","""","""","""","""","""","""","""","""","""","""","""","""","""","""","""","""","""","""","""","""","""","""","""","""","""",""""
"""","""","""","""","""",""instructions"",""3"",""57800"",""0.0-3.0"",""11-1-21:2:31"","""","""",""15855.39999999106"","""","""","""","""","""",""[{""""page_index"""":0,""""viewing_time"""":8270.20000000298},{""""page_index"""":1,""""viewing_time"""":7584.399999991059}]"",""instructions1"","""","""","""","""","""","""","""","""","""","""","""","""","""","""","""","""","""","""","""","""","""","""","""","""","""","""","""","""","""","""","""","""","""","""",""""
"""","""","""","""","""",""audio_response"",""4"",""71036"",""0.0-4.0"",""11-1-21:2:31"","""","""",""71044.09999999404"","""","""","""","""","""","""","""",""{""""aud_check"""":""""Strawberries""""}"",""Strawberries"","""","""","""","""","""","""","""","""","""","""","""","""","""","""","""","""","""","""","""","""","""","""","""","""","""","""","""","""","""","""","""","""",""""
"""","""","""","""","""",""fullscreen"",""5"",""76931"",""0.0-6.0"",""11-1-21:2:31"","""","""","""","""","""","""","""","""","""","""","""","""",""false"",""false"","""","""","""","""","""","""","""","""","""","""","""","""","""","""","""","""","""","""","""","""","""","""","""","""","""","""","""","""","""","""",""""
"""","""","""","""","""",""instructions"",""6"",""87450"",""0.0-7.0"",""11-1-21:2:31"","""","""",""10517.699999988079"","""","""","""","""","""",""[{""""page_index"""":0,""""viewing_time"""":10517.09999999404}]"",""instructions1"","""","""","""","""","""","""","""","""","""","""","""","""","""","""","""","""","""","""","""","""","""","""","""","""","""","""","""","""","""","""","""","""","""","""",""""
"""","""","""","""","""",""audio_response"",""7"",""118884"",""0.0-8.0"",""11-1-21:2:31"","""","""","""","""","""","""","""","""","""","""","""","""","""","""","""","""","""","""","""","""","""","""","""","""","""","""","""","""","""","""","""","""","""","""","""","""","""","""","""","""","""","""","""","""",""""
"""","""","""","""","""",""html-slider-response"",""8"",""128299"",""0.0-9.0-0.0"",""11-1-21:2:31"","""","""",""9413.10000000894"",""<p>Based on the personal statement you just heard, please answer the following question using the slider below. .<br>(You can click on the appropriate part of the white bar, or drag the blue circle to the appropriate place.) <br><br><b>What is the likelihood that you would hire this person?</b></p><br>"","""","""","""","""","""",""follow_ups"","""","""","""","""",""100"",""hire"","""","""","""","""","""","""","""","""","""","""","""","""","""","""","""","""","""","""","""","""","""","""","""","""","""","""","""","""",""""
"""","""","""","""","""",""survey-html-form"",""9"",""191266"",""0.0-10.0"",""11-1-21:2:31"","""","""",""62965.69999998808"","""","""","""","""","""","""",""debrief"",""{""""age"""":""""36"""",""""gender"""":""""female"""",""""audio_output"""":""""Laptop Speakers"""",""""testing"""":""""my guess is that we typically listen for something in particular but perhaps we are missing certain details"""",""""audio_problems"""":""""I had the tv on, but I do feel like I was concentrating"""",""""attention"""":""""84""""}"","""","""","""","""","""",""36"",""female"",""Laptop Speakers"",""I had the tv on, but I do feel like I was concentrating"",""my guess is that we typically listen for something in particular but perhaps we are missing certain details"","""",""84"",""true"","""","""","""","""","""","""","""","""","""","""","""","""","""","""","""","""","""","""","""","""",""""
"""","""","""","""","""",""survey-html-form"",""10"",""251798"",""0.0-11.0"",""11-1-21:2:31"","""","""",""60531.09999999404"","""","""","""","""","""","""",""debrief2"",""{""""hire_exp"""":""""Yes"""",""""audio_quality"""":""""50"""",""""understandable"""":""""100"""",""""other"""":""""the voice was robotic so it would have been easier to focus with a more \""""normal\"""" voice""""}"","""","""","""","""","""","""","""","""","""","""",""the voice was robotic so it would have been easier to focus with a more """"normal"""" voice"","""","""",""50"",""100"",""Yes"","""","""","""","""","""","""","""","""","""","""","""","""","""","""","""","""","""",""""
"""","""","""","""","""",""html-keyboard-response"",""11"",""251851"",""0.0-12.0"",""11-1-21:2:31"","""","""",""null"","""","""","""","""",""null"","""","""","""","""","""","""","""","""","""","""","""","""","""","""","""","""","""","""","""",""true"",""sound_files/matthew_sales_short_distort4.mp3"",""100"",""9413.10000000894"","""","""",""36"",""female"",""Laptop Speakers"",""I had the tv on, but I do feel like I was concentrating"",""my guess is that we typically listen for something in particular but perhaps we are missing certain details"",""the voice was robotic so it would have been easier to focus with a more """"normal"""" voice"",""84"",""50"",""100"",""Yes"",""true"",""11-1-21:2:31_comp_hire_summary""
"""","""","""","""","""",""html-keyboard-response"",""12"",""254855"",""0.0-13.0"",""11-1-21:2:31"","""","""",""null"",""Saving data ... One moment please..."","""","""","""",""null"","""","""","""","""","""","""","""","""","""","""","""","""","""","""","""","""","""","""","""","""","""","""","""","""","""","""","""","""","""","""","""","""","""","""","""","""",""""
",,,,,,,,,,,,,,,,,,,,,,,,,,,,,
,,,html-keyboard-response,11,411137,0.0-12.0,11-1-21:6:57,,,TRUE,sound_files/matthew_sales_short_distort4.mp3,49,24543.3,35,male,Laptop Speakers,No,initial reaction and how we would react to AI generated voices  ,"Was AI generated so didnt seem real. Also, his responses were very general, not specific on what he did/his results ",96,40,69,Yes,TRUE,11-1-21:6:57_comp_hire_summary,,,,,
11-1-21:6:57_comp_hire_all_data,"""success"",""timeout"",""failed_images"",""failed_audio"",""failed_video"",""trial_type"",""trial_index"",""time_elapsed"",""internal_node_id"",""subject"",""prolific_study_id"",""prolific_session_id"",""rt"",""stimulus"",""button_pressed"",""test_part"",""mobile"",""key_press"",""view_history"",""trial_part"",""responses"",""aud_check"",""pointer_error"",""pointer_redo"",""response"",""question"",""age"",""gender"",""audio_output"",""audio_problems"",""testing"",""other"",""attention"",""block_data"",""audio_quality"",""understandable"",""hire_exp"",""distorted_audio"",""sound_file"",""hire"",""response_rt"",""hire_values"",""hire_rts"",""debrief_age"",""debrief_gender"",""debrief_audio_output"",""debrief_audio_problems"",""debrief_testing"",""debrief_other"",""debrief_attention"",""debrief_audio_quality"",""debrief_understandable"",""debrief_hire_exp"",""data_summary"",""participant_id""
""true"",""false"",""[]"",""[]"",""[]"",""preload"",""0"",""18"",""0.0-0.0"",""11-1-21:6:57"","""","""","""","""","""","""","""","""","""","""","""","""","""","""","""","""","""","""","""","""","""","""","""","""","""","""","""","""","""","""","""","""","""","""","""","""","""","""","""","""","""","""","""","""",""""
"""","""","""","""","""",""html-button-response"",""1"",""33889"",""0.0-1.0"",""11-1-21:6:57"","""","""",""33869.10000000894"",""Please note that this experiment is only designed to work from a computer or laptop.  Please <strong> do not </strong> continue if you are using a phone, tablet, or other mobile device.  If you are on a phone, tablet or other mobile device you will need to return to prolific <br>and click """"stop without completing"""".  <br> <br> If you are currently seeing this page from a laptop or computer, please click on the 'Continue' button.<br><br>"",""0"",""check_device"",""false"","""","""","""","""","""","""","""","""","""","""","""","""","""","""","""","""","""","""","""","""","""","""","""","""","""","""","""","""","""","""","""","""","""","""","""","""","""",""""
"""","""","""","""","""",""html-keyboard-response"",""2"",""47639"",""0.0-2.0"",""11-1-21:6:57"","""","""",""13748.29999999702"",""<div style = 'font-size: .9vw; line-height: 1vw;'><h1>THIS IS A FRIENDS & FAMILY PILOT STUDY! Thank you in advance for your feedback. You will be compensated with gratitude :)<br> <br><strong>***Please Read and press the 'Y' key to consent to this study*** </strong> </h1><h4>Consent for Participation in a Research Study</h4><div style='width: 100%; text-align: center'><div style='display: inline-block; margin: 0 auto; padding: 2vh 5vw; text-align: left'><h2>STUDY TITLE</h2><p>Perceiving Objects and Events</p><h2>RESEARCH STUDY SUMMARY, RISKS, AND BENEFITS</h2><p>Thank you for volunteering to participate in this PILOT research study. The purpose of this study is to better understand how we see and how we think. Study activities will include examining simple displays and then responding by answering questions, pressing some keys, or using a computer mouse. Because these are activities that many people already experience hundreds or thousands of times every day, there are no risks involved in this study. The study may have no benefits to you, but it may help the scientific community come to better understand how the human mind works. Taking part in this study is your choice. You can choose to take part, or you can choose not to take part in this study. You can also change your mind at any time, with no penalty.</p><h2>DURATION</h2><p>If you agree to take part, the study will last approximately <strong>3 minutes</strong>.</p><h2>COSTS AND COMPENSATION</h2><p>There are no costs associated with participation in this study. You will receive <strong>$0.40</strong> for participating.</p><h1>CONFIDENTIALITY</h1><p>No personally identifying information will be collected, so your participation will be anonymous. Your data will be pooled with those from other participants, and may be included in scientific publications and uploaded to public data repositories.</p><h2>LEARNING MORE</h2><p>If you have questions about this study, you may contact your experimenter David Barnstone at dbarnsto@stanford.edu. If you have questions about your rights as a research participant, or you have complaints about this research, you can contact the STANFORD IRB CONTACT INFORMATION GOES HERE.</p><h2>INFORMED CONSENT</h2><p>Your participation indicates that you have read and understood this consent form and the information presented and that you agree to be in this study.</p></div></div> </div>"","""",""consent"","""",""y"","""","""","""","""","""","""","""","""","""","""","""","""","""","""","""","""","""","""","""","""","""","""","""","""","""","""","""","""","""","""","""","""","""","""","""","""",""""
"""","""","""","""","""",""instructions"",""3"",""118237"",""0.0-3.0"",""11-1-21:6:57"","""","""",""70597.90000000596"","""","""","""","""","""",""[{""""page_index"""":0,""""viewing_time"""":58947.5},{""""page_index"""":1,""""viewing_time"""":11649.60000000894}]"",""instructions1"","""","""","""","""","""","""","""","""","""","""","""","""","""","""","""","""","""","""","""","""","""","""","""","""","""","""","""","""","""","""","""","""","""","""",""""
"""","""","""","""","""",""audio_response"",""4"",""138206"",""0.0-4.0"",""11-1-21:6:57"","""","""",""138218.5"","""","""","""","""","""","""","""",""{""""aud_check"""":""""Strawberries""""}"",""Strawberries"","""","""","""","""","""","""","""","""","""","""","""","""","""","""","""","""","""","""","""","""","""","""","""","""","""","""","""","""","""","""","""","""",""""
"""","""","""","""","""",""fullscreen"",""5"",""142902"",""0.0-6.0"",""11-1-21:6:57"","""","""","""","""","""","""","""","""","""","""","""","""",""false"",""false"","""","""","""","""","""","""","""","""","""","""","""","""","""","""","""","""","""","""","""","""","""","""","""","""","""","""","""","""","""","""",""""
"""","""","""","""","""",""instructions"",""6"",""159153"",""0.0-7.0"",""11-1-21:6:57"","""","""",""16250.20000000298"","""","""","""","""","""",""[{""""page_index"""":0,""""viewing_time"""":16249.5}]"",""instructions1"","""","""","""","""","""","""","""","""","""","""","""","""","""","""","""","""","""","""","""","""","""","""","""","""","""","""","""","""","""","""","""","""","""","""",""""
"""","""","""","""","""",""audio_response"",""7"",""192157"",""0.0-8.0"",""11-1-21:6:57"","""","""","""","""","""","""","""","""","""","""","""","""","""","""","""","""","""","""","""","""","""","""","""","""","""","""","""","""","""","""","""","""","""","""","""","""","""","""","""","""","""","""","""","""",""""
"""","""","""","""","""",""html-slider-response"",""8"",""216702"",""0.0-9.0-0.0"",""11-1-21:6:57"","""","""",""24543.29999999702"",""<p>Based on the personal statement you just heard, please answer the following question using the slider below. .<br>(You can click on the appropriate part of the white bar, or drag the blue circle to the appropriate place.) <br><br><b>What is the likelihood that you would hire this person?</b></p><br>"","""","""","""","""","""",""follow_ups"","""","""","""","""",""49"",""hire"","""","""","""","""","""","""","""","""","""","""","""","""","""","""","""","""","""","""","""","""","""","""","""","""","""","""","""","""",""""
"""","""","""","""","""",""survey-html-form"",""9"",""356549"",""0.0-10.0"",""11-1-21:6:57"","""","""",""139846.5"","""","""","""","""","""","""",""debrief"",""{""""age"""":""""35"""",""""gender"""":""""male"""",""""audio_output"""":""""Laptop Speakers"""",""""testing"""":""""initial reaction and how we would react to AI generated voices  """",""""audio_problems"""":""""No"""",""""attention"""":""""96""""}"","""","""","""","""","""",""35"",""male"",""Laptop Speakers"",""No"",""initial reaction and how we would react to AI generated voices  "","""",""96"",""true"","""","""","""","""","""","""","""","""","""","""","""","""","""","""","""","""","""","""","""","""",""""
"""","""","""","""","""",""survey-html-form"",""10"",""411084"",""0.0-11.0"",""11-1-21:6:57"","""","""",""54533.39999999106"","""","""","""","""","""","""",""debrief2"",""{""""hire_exp"""":""""Yes"""",""""audio_quality"""":""""40"""",""""understandable"""":""""69"""",""""other"""":""""Was AI generated so didnt seem real. Also, his responses were very general, not specific on what he did/his results """"}"","""","""","""","""","""","""","""","""","""","""",""Was AI generated so didnt seem real. Also, his responses were very general, not specific on what he did/his results "","""","""",""40"",""69"",""Yes"","""","""","""","""","""","""","""","""","""","""","""","""","""","""","""","""","""",""""
"""","""","""","""","""",""html-keyboard-response"",""11"",""411137"",""0.0-12.0"",""11-1-21:6:57"","""","""",""null"","""","""","""","""",""null"","""","""","""","""","""","""","""","""","""","""","""","""","""","""","""","""","""","""","""",""true"",""sound_files/matthew_sales_short_distort4.mp3"",""49"",""24543.29999999702"","""","""",""35"",""male"",""Laptop Speakers"",""No"",""initial reaction and how we would react to AI generated voices  "",""Was AI generated so didnt seem real. Also, his responses were very general, not specific on what he did/his results "",""96"",""40"",""69"",""Yes"",""true"",""11-1-21:6:57_comp_hire_summary""
"""","""","""","""","""",""html-keyboard-response"",""12"",""414140"",""0.0-13.0"",""11-1-21:6:57"","""","""",""null"",""Saving data ... One moment please..."","""","""","""",""null"","""","""","""","""","""","""","""","""","""","""","""","""","""","""","""","""","""","""","""","""","""","""","""","""","""","""","""","""","""","""","""","""","""","""","""","""",""""
",,,,,,,,,,,,,,,,,,,,,,,,,,,,,
,,,html-keyboard-response,11,119385,0.0-12.0,11-1-19:54:24,,,FALSE,sound_files/matthew_sales_short.mp3,77,4485.5,33,male,External Speakers,nope,not sure,all good,100,100,100,Yes,TRUE,11-1-19:54:24_comp_hire_summary,,,,,
11-1-19:54:24_comp_hire_all_data,"""success"",""timeout"",""failed_images"",""failed_audio"",""failed_video"",""trial_type"",""trial_index"",""time_elapsed"",""internal_node_id"",""subject"",""prolific_study_id"",""prolific_session_id"",""rt"",""stimulus"",""button_pressed"",""test_part"",""mobile"",""key_press"",""view_history"",""trial_part"",""responses"",""aud_check"",""pointer_error"",""pointer_redo"",""response"",""question"",""age"",""gender"",""audio_output"",""audio_problems"",""testing"",""other"",""attention"",""block_data"",""audio_quality"",""understandable"",""hire_exp"",""distorted_audio"",""sound_file"",""hire"",""response_rt"",""hire_values"",""hire_rts"",""debrief_age"",""debrief_gender"",""debrief_audio_output"",""debrief_audio_problems"",""debrief_testing"",""debrief_other"",""debrief_attention"",""debrief_audio_quality"",""debrief_understandable"",""debrief_hire_exp"",""data_summary"",""participant_id""
""true"",""false"",""[]"",""[]"",""[]"",""preload"",""0"",""137"",""0.0-0.0"",""11-1-19:54:24"","""","""","""","""","""","""","""","""","""","""","""","""","""","""","""","""","""","""","""","""","""","""","""","""","""","""","""","""","""","""","""","""","""","""","""","""","""","""","""","""","""","""","""","""",""""
"""","""","""","""","""",""html-button-response"",""1"",""1685"",""0.0-1.0"",""11-1-19:54:24"","""","""",""1545.2999999523163"",""Please note that this experiment is only designed to work from a computer or laptop.  Please <strong> do not </strong> continue if you are using a phone, tablet, or other mobile device.  If you are on a phone, tablet or other mobile device you will need to return to prolific <br>and click """"stop without completing"""".  <br> <br> If you are currently seeing this page from a laptop or computer, please click on the 'Continue' button.<br><br>"",""0"",""check_device"",""false"","""","""","""","""","""","""","""","""","""","""","""","""","""","""","""","""","""","""","""","""","""","""","""","""","""","""","""","""","""","""","""","""","""","""","""","""","""",""""
"""","""","""","""","""",""html-keyboard-response"",""2"",""3788"",""0.0-2.0"",""11-1-19:54:24"","""","""",""2101.5999999046326"",""<div style = 'font-size: .9vw; line-height: 1vw;'><h1>THIS IS A FRIENDS & FAMILY PILOT STUDY! Thank you in advance for your feedback. You will be compensated with gratitude :)<br> <br><strong>***Please Read and press the 'Y' key to consent to this study*** </strong> </h1><h4>Consent for Participation in a Research Study</h4><div style='width: 100%; text-align: center'><div style='display: inline-block; margin: 0 auto; padding: 2vh 5vw; text-align: left'><h2>STUDY TITLE</h2><p>Perceiving Objects and Events</p><h2>RESEARCH STUDY SUMMARY, RISKS, AND BENEFITS</h2><p>Thank you for volunteering to participate in this PILOT research study. The purpose of this study is to better understand how we see and how we think. Study activities will include examining simple displays and then responding by answering questions, pressing some keys, or using a computer mouse. Because these are activities that many people already experience hundreds or thousands of times every day, there are no risks involved in this study. The study may have no benefits to you, but it may help the scientific community come to better understand how the human mind works. Taking part in this study is your choice. You can choose to take part, or you can choose not to take part in this study. You can also change your mind at any time, with no penalty.</p><h2>DURATION</h2><p>If you agree to take part, the study will last approximately <strong>3 minutes</strong>.</p><h2>COSTS AND COMPENSATION</h2><p>There are no costs associated with participation in this study. You will receive <strong>$0.40</strong> for participating.</p><h1>CONFIDENTIALITY</h1><p>No personally identifying information will be collected, so your participation will be anonymous. Your data will be pooled with those from other participants, and may be included in scientific publications and uploaded to public data repositories.</p><h2>LEARNING MORE</h2><p>If you have questions about this study, you may contact your experimenter David Barnstone at dbarnsto@stanford.edu. If you have questions about your rights as a research participant, or you have complaints about this research, you can contact the STANFORD IRB CONTACT INFORMATION GOES HERE.</p><h2>INFORMED CONSENT</h2><p>Your participation indicates that you have read and understood this consent form and the information presented and that you agree to be in this study.</p></div></div> </div>"","""",""consent"","""",""y"","""","""","""","""","""","""","""","""","""","""","""","""","""","""","""","""","""","""","""","""","""","""","""","""","""","""","""","""","""","""","""","""","""","""","""","""",""""
"""","""","""","""","""",""instructions"",""3"",""24709"",""0.0-3.0"",""11-1-19:54:24"","""","""",""20919.599999904633"","""","""","""","""","""",""[{""""page_index"""":0,""""viewing_time"""":13676.200000047684},{""""page_index"""":1,""""viewing_time"""":7242.399999856949}]"",""instructions1"","""","""","""","""","""","""","""","""","""","""","""","""","""","""","""","""","""","""","""","""","""","""","""","""","""","""","""","""","""","""","""","""","""","""",""""
"""","""","""","""","""",""audio_response"",""4"",""34311"",""0.0-4.0"",""11-1-19:54:24"","""","""",""34312.09999990463"","""","""","""","""","""","""","""",""{""""aud_check"""":""""Strawberries""""}"",""Strawberries"","""","""","""","""","""","""","""","""","""","""","""","""","""","""","""","""","""","""","""","""","""","""","""","""","""","""","""","""","""","""","""","""",""""
"""","""","""","""","""",""fullscreen"",""5"",""36240"",""0.0-6.0"",""11-1-19:54:24"","""","""","""","""","""","""","""","""","""","""","""","""",""false"",""false"","""","""","""","""","""","""","""","""","""","""","""","""","""","""","""","""","""","""","""","""","""","""","""","""","""","""","""","""","""","""",""""
"""","""","""","""","""",""instructions"",""6"",""42787"",""0.0-7.0"",""11-1-19:54:24"","""","""",""6545.5"","""","""","""","""","""",""[{""""page_index"""":0,""""viewing_time"""":6544.5}]"",""instructions1"","""","""","""","""","""","""","""","""","""","""","""","""","""","""","""","""","""","""","""","""","""","""","""","""","""","""","""","""","""","""","""","""","""","""",""""
"""","""","""","""","""",""audio_response"",""7"",""73035"",""0.0-8.0"",""11-1-19:54:24"","""","""","""","""","""","""","""","""","""","""","""","""","""","""","""","""","""","""","""","""","""","""","""","""","""","""","""","""","""","""","""","""","""","""","""","""","""","""","""","""","""","""","""","""",""""
"""","""","""","""","""",""html-slider-response"",""8"",""77524"",""0.0-9.0-0.0"",""11-1-19:54:24"","""","""",""4485.5"",""<p>Based on the personal statement you just heard, please answer the following question using the slider below. .<br>(You can click on the appropriate part of the white bar, or drag the blue circle to the appropriate place.) <br><br><b>What is the likelihood that you would hire this person?</b></p><br>"","""","""","""","""","""",""follow_ups"","""","""","""","""",""77"",""hire"","""","""","""","""","""","""","""","""","""","""","""","""","""","""","""","""","""","""","""","""","""","""","""","""","""","""","""","""",""""
"""","""","""","""","""",""survey-html-form"",""9"",""102861"",""0.0-10.0"",""11-1-19:54:24"","""","""",""25333.60000014305"","""","""","""","""","""","""",""debrief"",""{""""age"""":""""33"""",""""gender"""":""""male"""",""""audio_output"""":""""External Speakers"""",""""testing"""":""""not sure"""",""""audio_problems"""":""""nope"""",""""attention"""":""""100""""}"","""","""","""","""","""",""33"",""male"",""External Speakers"",""nope"",""not sure"","""",""100"",""true"","""","""","""","""","""","""","""","""","""","""","""","""","""","""","""","""","""","""","""","""",""""
"""","""","""","""","""",""survey-html-form"",""10"",""119332"",""0.0-11.0"",""11-1-19:54:24"","""","""",""16468.599999904633"","""","""","""","""","""","""",""debrief2"",""{""""hire_exp"""":""""Yes"""",""""audio_quality"""":""""100"""",""""understandable"""":""""100"""",""""other"""":""""all good""""}"","""","""","""","""","""","""","""","""","""","""",""all good"","""","""",""100"",""100"",""Yes"","""","""","""","""","""","""","""","""","""","""","""","""","""","""","""","""","""",""""
"""","""","""","""","""",""html-keyboard-response"",""11"",""119385"",""0.0-12.0"",""11-1-19:54:24"","""","""",""null"","""","""","""","""",""null"","""","""","""","""","""","""","""","""","""","""","""","""","""","""","""","""","""","""","""",""false"",""sound_files/matthew_sales_short.mp3"",""77"",""4485.5"","""","""",""33"",""male"",""External Speakers"",""nope"",""not sure"",""all good"",""100"",""100"",""100"",""Yes"",""true"",""11-1-19:54:24_comp_hire_summary""
"""","""","""","""","""",""html-keyboard-response"",""12"",""122390"",""0.0-13.0"",""11-1-19:54:24"","""","""",""null"",""Saving data ... One moment please..."","""","""","""",""null"","""","""","""","""","""","""","""","""","""","""","""","""","""","""","""","""","""","""","""","""","""","""","""","""","""","""","""","""","""","""","""","""","""","""","""","""",""""
",,,,,,,,,,,,,,,,,,,,,,,,,,,,,
,,,html-keyboard-response,11,111034,0.0-12.0,11-2-6:14:27,,,TRUE,sound_files/matthew_sales_short_distort4.mp3,19,9158.2,28,male,Headphones,it was a little low,audio,thanks,100,14,85,No,TRUE,11-2-6:14:27_comp_hire_summary,,,,,
11-2-6:14:27_comp_hire_all_data,"""success"",""timeout"",""failed_images"",""failed_audio"",""failed_video"",""trial_type"",""trial_index"",""time_elapsed"",""internal_node_id"",""subject"",""prolific_study_id"",""prolific_session_id"",""rt"",""stimulus"",""button_pressed"",""test_part"",""mobile"",""key_press"",""view_history"",""trial_part"",""responses"",""aud_check"",""pointer_error"",""pointer_redo"",""response"",""question"",""age"",""gender"",""audio_output"",""audio_problems"",""testing"",""other"",""attention"",""block_data"",""audio_quality"",""understandable"",""hire_exp"",""distorted_audio"",""sound_file"",""hire"",""response_rt"",""hire_values"",""hire_rts"",""debrief_age"",""debrief_gender"",""debrief_audio_output"",""debrief_audio_problems"",""debrief_testing"",""debrief_other"",""debrief_attention"",""debrief_audio_quality"",""debrief_understandable"",""debrief_hire_exp"",""data_summary"",""participant_id""
""true"",""false"",""[]"",""[]"",""[]"",""preload"",""0"",""161"",""0.0-0.0"",""11-2-6:14:27"","""","""","""","""","""","""","""","""","""","""","""","""","""","""","""","""","""","""","""","""","""","""","""","""","""","""","""","""","""","""","""","""","""","""","""","""","""","""","""","""","""","""","""","""",""""
"""","""","""","""","""",""html-button-response"",""1"",""1208"",""0.0-1.0"",""11-2-6:14:27"","""","""",""1043.7999999523163"",""Please note that this experiment is only designed to work from a computer or laptop.  Please <strong> do not </strong> continue if you are using a phone, tablet, or other mobile device.  If you are on a phone, tablet or other mobile device you will need to return to prolific <br>and click """"stop without completing"""".  <br> <br> If you are currently seeing this page from a laptop or computer, please click on the 'Continue' button.<br><br>"",""0"",""check_device"",""false"","""","""","""","""","""","""","""","""","""","""","""","""","""","""","""","""","""","""","""","""","""","""","""","""","""","""","""","""","""","""","""","""","""","""","""","""","""",""""
"""","""","""","""","""",""html-keyboard-response"",""2"",""3303"",""0.0-2.0"",""11-2-6:14:27"","""","""",""2091.2999999523163"",""<div style = 'font-size: .9vw; line-height: 1vw;'><h1>THIS IS A FRIENDS & FAMILY PILOT STUDY! Thank you in advance for your feedback. You will be compensated with gratitude :)<br> <br><strong>***Please Read and press the 'Y' key to consent to this study*** </strong> </h1><h4>Consent for Participation in a Research Study</h4><div style='width: 100%; text-align: center'><div style='display: inline-block; margin: 0 auto; padding: 2vh 5vw; text-align: left'><h2>STUDY TITLE</h2><p>Perceiving Objects and Events</p><h2>RESEARCH STUDY SUMMARY, RISKS, AND BENEFITS</h2><p>Thank you for volunteering to participate in this PILOT research study. The purpose of this study is to better understand how we see and how we think. Study activities will include examining simple displays and then responding by answering questions, pressing some keys, or using a computer mouse. Because these are activities that many people already experience hundreds or thousands of times every day, there are no risks involved in this study. The study may have no benefits to you, but it may help the scientific community come to better understand how the human mind works. Taking part in this study is your choice. You can choose to take part, or you can choose not to take part in this study. You can also change your mind at any time, with no penalty.</p><h2>DURATION</h2><p>If you agree to take part, the study will last approximately <strong>3 minutes</strong>.</p><h2>COSTS AND COMPENSATION</h2><p>There are no costs associated with participation in this study. You will receive <strong>$0.40</strong> for participating.</p><h1>CONFIDENTIALITY</h1><p>No personally identifying information will be collected, so your participation will be anonymous. Your data will be pooled with those from other participants, and may be included in scientific publications and uploaded to public data repositories.</p><h2>LEARNING MORE</h2><p>If you have questions about this study, you may contact your experimenter David Barnstone at dbarnsto@stanford.edu. If you have questions about your rights as a research participant, or you have complaints about this research, you can contact the STANFORD IRB CONTACT INFORMATION GOES HERE.</p><h2>INFORMED CONSENT</h2><p>Your participation indicates that you have read and understood this consent form and the information presented and that you agree to be in this study.</p></div></div> </div>"","""",""consent"","""",""y"","""","""","""","""","""","""","""","""","""","""","""","""","""","""","""","""","""","""","""","""","""","""","""","""","""","""","""","""","""","""","""","""","""","""","""","""",""""
"""","""","""","""","""",""instructions"",""3"",""20301"",""0.0-3.0"",""11-2-6:14:27"","""","""",""16997.39999985695"","""","""","""","""","""",""[{""""page_index"""":0,""""viewing_time"""":6513.199999809265},{""""page_index"""":1,""""viewing_time"""":10483.5}]"",""instructions1"","""","""","""","""","""","""","""","""","""","""","""","""","""","""","""","""","""","""","""","""","""","""","""","""","""","""","""","""","""","""","""","""","""","""",""""
"""","""","""","""","""",""audio_response"",""4"",""27447"",""0.0-4.0"",""11-2-6:14:27"","""","""",""27448.200000047684"","""","""","""","""","""","""","""",""{""""aud_check"""":""""Strawberries""""}"",""Strawberries"","""","""","""","""","""","""","""","""","""","""","""","""","""","""","""","""","""","""","""","""","""","""","""","""","""","""","""","""","""","""","""","""",""""
"""","""","""","""","""",""fullscreen"",""5"",""28615"",""0.0-6.0"",""11-2-6:14:27"","""","""","""","""","""","""","""","""","""","""","""","""",""false"",""false"","""","""","""","""","""","""","""","""","""","""","""","""","""","""","""","""","""","""","""","""","""","""","""","""","""","""","""","""","""","""",""""
"""","""","""","""","""",""instructions"",""6"",""36953"",""0.0-7.0"",""11-2-6:14:27"","""","""",""8337.399999856949"","""","""","""","""","""",""[{""""page_index"""":0,""""viewing_time"""":8336.599999904633}]"",""instructions1"","""","""","""","""","""","""","""","""","""","""","""","""","""","""","""","""","""","""","""","""","""","""","""","""","""","""","""","""","""","""","""","""","""","""",""""
"""","""","""","""","""",""audio_response"",""7"",""66894"",""0.0-8.0"",""11-2-6:14:27"","""","""","""","""","""","""","""","""","""","""","""","""","""","""","""","""","""","""","""","""","""","""","""","""","""","""","""","""","""","""","""","""","""","""","""","""","""","""","""","""","""","""","""","""",""""
"""","""","""","""","""",""html-slider-response"",""8"",""76057"",""0.0-9.0-0.0"",""11-2-6:14:27"","""","""",""9158.200000047684"",""<p>Based on the personal statement you just heard, please answer the following question using the slider below. .<br>(You can click on the appropriate part of the white bar, or drag the blue circle to the appropriate place.) <br><br><b>What is the likelihood that you would hire this person?</b></p><br>"","""","""","""","""","""",""follow_ups"","""","""","""","""",""19"",""hire"","""","""","""","""","""","""","""","""","""","""","""","""","""","""","""","""","""","""","""","""","""","""","""","""","""","""","""","""",""""
"""","""","""","""","""",""survey-html-form"",""9"",""95049"",""0.0-10.0"",""11-2-6:14:27"","""","""",""18987.799999952316"","""","""","""","""","""","""",""debrief"",""{""""age"""":""""28"""",""""gender"""":""""male"""",""""audio_output"""":""""Headphones"""",""""testing"""":""""audio"""",""""audio_problems"""":""""it was a little low"""",""""attention"""":""""100""""}"","""","""","""","""","""",""28"",""male"",""Headphones"",""it was a little low"",""audio"","""",""100"",""true"","""","""","""","""","""","""","""","""","""","""","""","""","""","""","""","""","""","""","""","""",""""
"""","""","""","""","""",""survey-html-form"",""10"",""110981"",""0.0-11.0"",""11-2-6:14:27"","""","""",""15929.200000047684"","""","""","""","""","""","""",""debrief2"",""{""""hire_exp"""":""""No"""",""""audio_quality"""":""""14"""",""""understandable"""":""""85"""",""""other"""":""""thanks""""}"","""","""","""","""","""","""","""","""","""","""",""thanks"","""","""",""14"",""85"",""No"","""","""","""","""","""","""","""","""","""","""","""","""","""","""","""","""","""",""""
"""","""","""","""","""",""html-keyboard-response"",""11"",""111034"",""0.0-12.0"",""11-2-6:14:27"","""","""",""null"","""","""","""","""",""null"","""","""","""","""","""","""","""","""","""","""","""","""","""","""","""","""","""","""","""",""true"",""sound_files/matthew_sales_short_distort4.mp3"",""19"",""9158.200000047684"","""","""",""28"",""male"",""Headphones"",""it was a little low"",""audio"",""thanks"",""100"",""14"",""85"",""No"",""true"",""11-2-6:14:27_comp_hire_summary""
"""","""","""","""","""",""html-keyboard-response"",""12"",""114038"",""0.0-13.0"",""11-2-6:14:27"","""","""",""null"",""Saving data ... One moment please..."","""","""","""",""null"","""","""","""","""","""","""","""","""","""","""","""","""","""","""","""","""","""","""","""","""","""","""","""","""","""","""","""","""","""","""","""","""","""","""","""","""",""""
",,,,,,,,,,,,,,,,,,,,,,,,,,,,,
,,,html-keyboard-response,11,186525,0.0-12.0,11-4-9:53:20,,,TRUE,sound_files/matthew_sales_short_distort4.mp3,6,8297.4,38,female,Laptop Speakers,no,sound projection,no,100,10,60,No,TRUE,11-4-9:53:20_comp_hire_summary,,,,,
11-4-9:53:20_comp_hire_all_data,"""success"",""timeout"",""failed_images"",""failed_audio"",""failed_video"",""trial_type"",""trial_index"",""time_elapsed"",""internal_node_id"",""subject"",""prolific_study_id"",""prolific_session_id"",""rt"",""stimulus"",""button_pressed"",""test_part"",""mobile"",""key_press"",""view_history"",""trial_part"",""responses"",""aud_check"",""pointer_error"",""pointer_redo"",""response"",""question"",""age"",""gender"",""audio_output"",""audio_problems"",""testing"",""other"",""attention"",""block_data"",""audio_quality"",""understandable"",""hire_exp"",""distorted_audio"",""sound_file"",""hire"",""response_rt"",""hire_values"",""hire_rts"",""debrief_age"",""debrief_gender"",""debrief_audio_output"",""debrief_audio_problems"",""debrief_testing"",""debrief_other"",""debrief_attention"",""debrief_audio_quality"",""debrief_understandable"",""debrief_hire_exp"",""data_summary"",""participant_id""
""true"",""false"",""[]"",""[]"",""[]"",""preload"",""0"",""784"",""0.0-0.0"",""11-4-9:53:20"","""","""","""","""","""","""","""","""","""","""","""","""","""","""","""","""","""","""","""","""","""","""","""","""","""","""","""","""","""","""","""","""","""","""","""","""","""","""","""","""","""","""","""","""",""""
"""","""","""","""","""",""html-button-response"",""1"",""10080"",""0.0-1.0"",""11-4-9:53:20"","""","""",""9293.09999999404"",""Please note that this experiment is only designed to work from a computer or laptop.  Please <strong> do not </strong> continue if you are using a phone, tablet, or other mobile device.  If you are on a phone, tablet or other mobile device you will need to return to prolific <br>and click """"stop without completing"""".  <br> <br> If you are currently seeing this page from a laptop or computer, please click on the 'Continue' button.<br><br>"",""0"",""check_device"",""false"","""","""","""","""","""","""","""","""","""","""","""","""","""","""","""","""","""","""","""","""","""","""","""","""","""","""","""","""","""","""","""","""","""","""","""","""","""",""""
"""","""","""","""","""",""html-keyboard-response"",""2"",""17531"",""0.0-2.0"",""11-4-9:53:20"","""","""",""7449.0999999940395"",""<div style = 'font-size: .9vw; line-height: 1vw;'><h1>By answering the following questions, you are participating in a study being performed by cognitive scientists in the Stanford Department of Psychology.<br> <br><strong>***Please Read and press the 'Y' key to consent to this study*** </strong> </h1><h4>Consent for Participation in a Research Study</h4><div style='width: 100%; text-align: center'><div style='display: inline-block; margin: 0 auto; padding: 2vh 5vw; text-align: left'><h2>STUDY TITLE</h2><p>Perceiving Objects and Events</p><h2>RESEARCH STUDY SUMMARY, RISKS, AND BENEFITS</h2><p>Thank you for volunteering to participate in this PILOT research study. The purpose of this study is to better understand how we see and how we think. Study activities will include examining simple displays and then responding by answering questions, pressing some keys, or using a computer mouse. Because these are activities that many people already experience hundreds or thousands of times every day, there are no risks involved in this study. The study may have no benefits to you, but it may help the scientific community come to better understand how the human mind works. You must be at least 18 years old to participate. Your participation in this research is voluntary. You may decline to answer any or all of the following questions. You may decline further participation, at any time, without adverse consequences.</p><h2>DURATION</h2><p>If you agree to take part, the study will last approximately <strong>3 minutes</strong>.</p><h2>COSTS AND COMPENSATION</h2><p>There are no costs associated with participation in this study. You will receive <strong>$0.40</strong> for participating.</p><h1>CONFIDENTIALITY</h1><p>Your anonymity is assured; the researchers who have requested your participation will not receive any personal information about you.</p><h2>LEARNING MORE</h2><p>If you have questions about this research, please contact us at stanfordpsych251@gmail.com.</p><h2>INFORMED CONSENT</h2><p>Your participation indicates that you have read and understood this consent form and the information presented and that you agree to be in this study.</p></div></div> </div>"","""",""consent"","""",""y"","""","""","""","""","""","""","""","""","""","""","""","""","""","""","""","""","""","""","""","""","""","""","""","""","""","""","""","""","""","""","""","""","""","""","""","""",""""
"""","""","""","""","""",""instructions"",""3"",""38572"",""0.0-3.0"",""11-4-9:53:20"","""","""",""21040.70000000298"","""","""","""","""","""",""[{""""page_index"""":0,""""viewing_time"""":7323.70000000298},{""""page_index"""":1,""""viewing_time"""":13716.39999999106}]"",""instructions1"","""","""","""","""","""","""","""","""","""","""","""","""","""","""","""","""","""","""","""","""","""","""","""","""","""","""","""","""","""","""","""","""","""","""",""""
"""","""","""","""","""",""audio_response"",""4"",""56858"",""0.0-4.0"",""11-4-9:53:20"","""","""",""56862.10000000894"","""","""","""","""","""","""","""",""{""""aud_check"""":""""Strawberries""""}"",""Strawberries"","""","""","""","""","""","""","""","""","""","""","""","""","""","""","""","""","""","""","""","""","""","""","""","""","""","""","""","""","""","""","""","""",""""
"""","""","""","""","""",""fullscreen"",""5"",""67798"",""0.0-6.0"",""11-4-9:53:20"","""","""","""","""","""","""","""","""","""","""","""","""",""false"",""false"","""","""","""","""","""","""","""","""","""","""","""","""","""","""","""","""","""","""","""","""","""","""","""","""","""","""","""","""","""","""",""""
"""","""","""","""","""",""instructions"",""6"",""83115"",""0.0-7.0"",""11-4-9:53:20"","""","""",""15316.40000000596"","""","""","""","""","""",""[{""""page_index"""":0,""""viewing_time"""":15316}]"",""instructions1"","""","""","""","""","""","""","""","""","""","""","""","""","""","""","""","""","""","""","""","""","""","""","""","""","""","""","""","""","""","""","""","""","""","""",""""
"""","""","""","""","""",""audio_response"",""7"",""113698"",""0.0-8.0"",""11-4-9:53:20"","""","""","""","""","""","""","""","""","""","""","""","""","""","""","""","""","""","""","""","""","""","""","""","""","""","""","""","""","""","""","""","""","""","""","""","""","""","""","""","""","""","""","""","""",""""
"""","""","""","""","""",""html-slider-response"",""8"",""121998"",""0.0-9.0-0.0"",""11-4-9:53:20"","""","""",""8297.39999999106"",""<p>Based on the personal statement you just heard, please answer the following question using the slider below. .<br>(You can click on the appropriate part of the white bar, or drag the blue circle to the appropriate place.) <br><br><b>What is the likelihood that you would hire this person?</b></p><br>"","""","""","""","""","""",""follow_ups"","""","""","""","""",""6"",""hire"","""","""","""","""","""","""","""","""","""","""","""","""","""","""","""","""","""","""","""","""","""","""","""","""","""","""","""","""",""""
"""","""","""","""","""",""survey-html-form"",""9"",""166377"",""0.0-10.0"",""11-4-9:53:20"","""","""",""44377.79999999702"","""","""","""","""","""","""",""debrief"",""{""""age"""":""""38"""",""""gender"""":""""female"""",""""audio_output"""":""""Laptop Speakers"""",""""testing"""":""""sound projection"""",""""audio_problems"""":""""no"""",""""attention"""":""""100""""}"","""","""","""","""","""",""38"",""female"",""Laptop Speakers"",""no"",""sound projection"","""",""100"",""true"","""","""","""","""","""","""","""","""","""","""","""","""","""","""","""","""","""","""","""","""",""""
"""","""","""","""","""",""survey-html-form"",""10"",""186463"",""0.0-11.0"",""11-4-9:53:20"","""","""",""20084.10000000894"","""","""","""","""","""","""",""debrief2"",""{""""hire_exp"""":""""No"""",""""audio_quality"""":""""10"""",""""understandable"""":""""60"""",""""other"""":""""no""""}"","""","""","""","""","""","""","""","""","""","""",""no"","""","""",""10"",""60"",""No"","""","""","""","""","""","""","""","""","""","""","""","""","""","""","""","""","""",""""
"""","""","""","""","""",""html-keyboard-response"",""11"",""186525"",""0.0-12.0"",""11-4-9:53:20"","""","""",""null"","""","""","""","""",""null"","""","""","""","""","""","""","""","""","""","""","""","""","""","""","""","""","""","""","""",""true"",""sound_files/matthew_sales_short_distort4.mp3"",""6"",""8297.39999999106"","""","""",""38"",""female"",""Laptop Speakers"",""no"",""sound projection"",""no"",""100"",""10"",""60"",""No"",""true"",""11-4-9:53:20_comp_hire_summary""
"""","""","""","""","""",""html-keyboard-response"",""12"",""189537"",""0.0-13.0"",""11-4-9:53:20"","""","""",""null"",""Saving data ... One moment please..."","""","""","""",""null"","""","""","""","""","""","""","""","""","""","""","""","""","""","""","""","""","""","""","""","""","""","""","""","""","""","""","""","""","""","""","""","""","""","""","""","""",""""
",,,,,,,,,,,,,,,,,,,,,,,,,,,,,
,,,html-keyboard-response,11,262059,0.0-12.0,11-6-8:16:12,,,FALSE,sound_files/matthew_sales_short.mp3,75,9767.7,35,male,Laptop Speakers,no,how language is related to perceptions of competence,none,77,96,99,Yes,TRUE,11-6-8:16:12_comp_hire_summary,,,,,
11-6-8:16:12_comp_hire_all_data,"""success"",""timeout"",""failed_images"",""failed_audio"",""failed_video"",""trial_type"",""trial_index"",""time_elapsed"",""internal_node_id"",""subject"",""prolific_study_id"",""prolific_session_id"",""rt"",""stimulus"",""button_pressed"",""test_part"",""mobile"",""key_press"",""view_history"",""trial_part"",""responses"",""aud_check"",""pointer_error"",""pointer_redo"",""response"",""question"",""age"",""gender"",""audio_output"",""audio_problems"",""testing"",""other"",""attention"",""block_data"",""audio_quality"",""understandable"",""hire_exp"",""distorted_audio"",""sound_file"",""hire"",""response_rt"",""hire_values"",""hire_rts"",""debrief_age"",""debrief_gender"",""debrief_audio_output"",""debrief_audio_problems"",""debrief_testing"",""debrief_other"",""debrief_attention"",""debrief_audio_quality"",""debrief_understandable"",""debrief_hire_exp"",""data_summary"",""participant_id""
""true"",""false"",""[]"",""[]"",""[]"",""preload"",""0"",""1206"",""0.0-0.0"",""11-6-8:16:12"","""","""","""","""","""","""","""","""","""","""","""","""","""","""","""","""","""","""","""","""","""","""","""","""","""","""","""","""","""","""","""","""","""","""","""","""","""","""","""","""","""","""","""","""",""""
"""","""","""","""","""",""html-button-response"",""1"",""24859"",""0.0-1.0"",""11-6-8:16:12"","""","""",""23651.40000000596"",""Please note that this experiment is only designed to work from a computer or laptop.  Please <strong> do not </strong> continue if you are using a phone, tablet, or other mobile device.  If you are on a phone, tablet or other mobile device you will need to return to prolific <br>and click """"stop without completing"""".  <br> <br> If you are currently seeing this page from a laptop or computer, please click on the 'Continue' button.<br><br>"",""0"",""check_device"",""false"","""","""","""","""","""","""","""","""","""","""","""","""","""","""","""","""","""","""","""","""","""","""","""","""","""","""","""","""","""","""","""","""","""","""","""","""","""",""""
"""","""","""","""","""",""html-keyboard-response"",""2"",""41519"",""0.0-2.0"",""11-6-8:16:12"","""","""",""16658.59999999404"",""<div style = 'font-size: .9vw; line-height: 1vw;'><h1>THIS IS A FRIENDS & FAMILY PILOT STUDY! Thank you in advance for your feedback. You will be compensated with gratitude :)<br> <br><strong>***Please Read and press the 'Y' key to consent to this study*** </strong> </h1><h4>Consent for Participation in a Research Study</h4><div style='width: 100%; text-align: center'><div style='display: inline-block; margin: 0 auto; padding: 2vh 5vw; text-align: left'><h2>STUDY TITLE</h2><p>Perceiving Objects and Events</p><h2>RESEARCH STUDY SUMMARY, RISKS, AND BENEFITS</h2><p>Thank you for volunteering to participate in this PILOT research study. The purpose of this study is to better understand how we see and how we think. Study activities will include examining simple displays and then responding by answering questions, pressing some keys, or using a computer mouse. Because these are activities that many people already experience hundreds or thousands of times every day, there are no risks involved in this study. The study may have no benefits to you, but it may help the scientific community come to better understand how the human mind works. Taking part in this study is your choice. You can choose to take part, or you can choose not to take part in this study. You can also change your mind at any time, with no penalty.</p><h2>DURATION</h2><p>If you agree to take part, the study will last approximately <strong>3 minutes</strong>.</p><h2>COSTS AND COMPENSATION</h2><p>There are no costs associated with participation in this study. You will receive <strong>$0.40</strong> for participating.</p><h1>CONFIDENTIALITY</h1><p>No personally identifying information will be collected, so your participation will be anonymous. Your data will be pooled with those from other participants, and may be included in scientific publications and uploaded to public data repositories.</p><h2>LEARNING MORE</h2><p>If you have questions about this study, you may contact your experimenter David Barnstone at dbarnsto@stanford.edu. If you have questions about your rights as a research participant, or you have complaints about this research, you can contact the STANFORD IRB CONTACT INFORMATION GOES HERE.</p><h2>INFORMED CONSENT</h2><p>Your participation indicates that you have read and understood this consent form and the information presented and that you agree to be in this study.</p></div></div> </div>"","""",""consent"","""",""y"","""","""","""","""","""","""","""","""","""","""","""","""","""","""","""","""","""","""","""","""","""","""","""","""","""","""","""","""","""","""","""","""","""","""","""","""",""""
"""","""","""","""","""",""instructions"",""3"",""70339"",""0.0-3.0"",""11-6-8:16:12"","""","""",""28819.20000000298"","""","""","""","""","""",""[{""""page_index"""":0,""""viewing_time"""":16536.29999999702},{""""page_index"""":1,""""viewing_time"""":12282}]"",""instructions1"","""","""","""","""","""","""","""","""","""","""","""","""","""","""","""","""","""","""","""","""","""","""","""","""","""","""","""","""","""","""","""","""","""","""",""""
"""","""","""","""","""",""audio_response"",""4"",""89229"",""0.0-4.0"",""11-6-8:16:12"","""","""",""89234.5"","""","""","""","""","""","""","""",""{""""aud_check"""":""""Strawberries""""}"",""Strawberries"","""","""","""","""","""","""","""","""","""","""","""","""","""","""","""","""","""","""","""","""","""","""","""","""","""","""","""","""","""","""","""","""",""""
"""","""","""","""","""",""fullscreen"",""5"",""107397"",""0.0-6.0"",""11-6-8:16:12"","""","""","""","""","""","""","""","""","""","""","""","""",""false"",""false"","""","""","""","""","""","""","""","""","""","""","""","""","""","""","""","""","""","""","""","""","""","""","""","""","""","""","""","""","""","""",""""
"""","""","""","""","""",""instructions"",""6"",""124089"",""0.0-7.0"",""11-6-8:16:12"","""","""",""16692.79999999702"","""","""","""","""","""",""[{""""page_index"""":0,""""viewing_time"""":16692}]"",""instructions1"","""","""","""","""","""","""","""","""","""","""","""","""","""","""","""","""","""","""","""","""","""","""","""","""","""","""","""","""","""","""","""","""","""","""",""""
"""","""","""","""","""",""audio_response"",""7"",""157318"",""0.0-8.0"",""11-6-8:16:12"","""","""","""","""","""","""","""","""","""","""","""","""","""","""","""","""","""","""","""","""","""","""","""","""","""","""","""","""","""","""","""","""","""","""","""","""","""","""","""","""","""","""","""","""",""""
"""","""","""","""","""",""html-slider-response"",""8"",""167089"",""0.0-9.0-0.0"",""11-6-8:16:12"","""","""",""9767.70000000298"",""<p>Based on the personal statement you just heard, please answer the following question using the slider below. .<br>(You can click on the appropriate part of the white bar, or drag the blue circle to the appropriate place.) <br><br><b>What is the likelihood that you would hire this person?</b></p><br>"","""","""","""","""","""",""follow_ups"","""","""","""","""",""75"",""hire"","""","""","""","""","""","""","""","""","""","""","""","""","""","""","""","""","""","""","""","""","""","""","""","""","""","""","""","""",""""
"""","""","""","""","""",""survey-html-form"",""9"",""223909"",""0.0-10.0"",""11-6-8:16:12"","""","""",""56818.40000000596"","""","""","""","""","""","""",""debrief"",""{""""age"""":""""35"""",""""gender"""":""""male"""",""""audio_output"""":""""Laptop Speakers"""",""""testing"""":""""how language is related to perceptions of competence"""",""""audio_problems"""":""""no"""",""""attention"""":""""77""""}"","""","""","""","""","""",""35"",""male"",""Laptop Speakers"",""no"",""how language is related to perceptions of competence"","""",""77"",""true"","""","""","""","""","""","""","""","""","""","""","""","""","""","""","""","""","""","""","""","""",""""
"""","""","""","""","""",""survey-html-form"",""10"",""262007"",""0.0-11.0"",""11-6-8:16:12"","""","""",""38097.09999999404"","""","""","""","""","""","""",""debrief2"",""{""""hire_exp"""":""""Yes"""",""""audio_quality"""":""""96"""",""""understandable"""":""""99"""",""""other"""":""""none""""}"","""","""","""","""","""","""","""","""","""","""",""none"","""","""",""96"",""99"",""Yes"","""","""","""","""","""","""","""","""","""","""","""","""","""","""","""","""","""",""""
"""","""","""","""","""",""html-keyboard-response"",""11"",""262059"",""0.0-12.0"",""11-6-8:16:12"","""","""",""null"","""","""","""","""",""null"","""","""","""","""","""","""","""","""","""","""","""","""","""","""","""","""","""","""","""",""false"",""sound_files/matthew_sales_short.mp3"",""75"",""9767.70000000298"","""","""",""35"",""male"",""Laptop Speakers"",""no"",""how language is related to perceptions of competence"",""none"",""77"",""96"",""99"",""Yes"",""true"",""11-6-8:16:12_comp_hire_summary""
"""","""","""","""","""",""html-keyboard-response"",""12"",""265063"",""0.0-13.0"",""11-6-8:16:12"","""","""",""null"",""Saving data ... One moment please..."","""","""","""",""null"","""","""","""","""","""","""","""","""","""","""","""","""","""","""","""","""","""","""","""","""","""","""","""","""","""","""","""","""","""","""","""","""","""","""","""","""",""""
",,,,,,,,,,,,,,,,,,,,,,,,,,,,,
,,,html-keyboard-response,11,340415,0.0-12.0,11-8-11:7:50,,,TRUE,sound_files/matthew_sales_short_distort4.mp3,29,9961.1,36,male,Laptop Speakers,"I did not experience any technical difficulties, but the audio was of low quality, which surprised me a bit, considering that the test audio clip was very clear.","I am not sure, but the audio I heard sounded like it was written by AI with minimal detail provided by the prompter, so perhaps this study involves testing the performance of some generative AI model?","I have interviewed and hired many people, but I have no background or experience in sales.",95,23,100,Yes,TRUE,11-8-11:7:50_comp_hire_summary,,,,,
11-8-11:7:50_comp_hire_all_data,"""success"",""timeout"",""failed_images"",""failed_audio"",""failed_video"",""trial_type"",""trial_index"",""time_elapsed"",""internal_node_id"",""subject"",""prolific_study_id"",""prolific_session_id"",""rt"",""stimulus"",""button_pressed"",""test_part"",""mobile"",""key_press"",""view_history"",""trial_part"",""responses"",""aud_check"",""pointer_error"",""pointer_redo"",""response"",""question"",""age"",""gender"",""audio_output"",""audio_problems"",""testing"",""other"",""attention"",""block_data"",""audio_quality"",""understandable"",""hire_exp"",""distorted_audio"",""sound_file"",""hire"",""response_rt"",""hire_values"",""hire_rts"",""debrief_age"",""debrief_gender"",""debrief_audio_output"",""debrief_audio_problems"",""debrief_testing"",""debrief_other"",""debrief_attention"",""debrief_audio_quality"",""debrief_understandable"",""debrief_hire_exp"",""data_summary"",""participant_id""
""true"",""false"",""[]"",""[]"",""[]"",""preload"",""0"",""951"",""0.0-0.0"",""11-8-11:7:50"","""","""","""","""","""","""","""","""","""","""","""","""","""","""","""","""","""","""","""","""","""","""","""","""","""","""","""","""","""","""","""","""","""","""","""","""","""","""","""","""","""","""","""","""",""""
"""","""","""","""","""",""html-button-response"",""1"",""6937"",""0.0-1.0"",""11-8-11:7:50"","""","""",""5983.899999856949"",""Please note that this experiment is only designed to work from a computer or laptop.  Please <strong> do not </strong> continue if you are using a phone, tablet, or other mobile device.  If you are on a phone, tablet or other mobile device you will need to return to prolific <br>and click """"stop without completing"""".  <br> <br> If you are currently seeing this page from a laptop or computer, please click on the 'Continue' button.<br><br>"",""0"",""check_device"",""false"","""","""","""","""","""","""","""","""","""","""","""","""","""","""","""","""","""","""","""","""","""","""","""","""","""","""","""","""","""","""","""","""","""","""","""","""","""",""""
"""","""","""","""","""",""html-keyboard-response"",""2"",""25410"",""0.0-2.0"",""11-8-11:7:50"","""","""",""18471.400000095367"",""<div style = 'font-size: .9vw; line-height: 1vw;'><h1>By answering the following questions, you are participating in a study being performed by cognitive scientists in the Stanford Department of Psychology.<br> <br><strong>***Please Read and press the 'Y' key to consent to this study*** </strong> </h1><h4>Consent for Participation in a Research Study</h4><div style='width: 100%; text-align: center'><div style='display: inline-block; margin: 0 auto; padding: 2vh 5vw; text-align: left'><h2>STUDY TITLE</h2><p>Perceiving Objects and Events</p><h2>RESEARCH STUDY SUMMARY, RISKS, AND BENEFITS</h2><p>Thank you for volunteering to participate in this PILOT research study. The purpose of this study is to better understand how we see and how we think. Study activities will include examining simple displays and then responding by answering questions, pressing some keys, or using a computer mouse. Because these are activities that many people already experience hundreds or thousands of times every day, there are no risks involved in this study. The study may have no benefits to you, but it may help the scientific community come to better understand how the human mind works. You must be at least 18 years old to participate. Your participation in this research is voluntary. You may decline to answer any or all of the following questions. You may decline further participation, at any time, without adverse consequences.</p><h2>DURATION</h2><p>If you agree to take part, the study will last approximately <strong>4 minutes</strong>.</p><h2>COSTS AND COMPENSATION</h2><p>There are no costs associated with participation in this study. You will receive <strong>$0.53</strong> for participating.</p><h1>CONFIDENTIALITY</h1><p>Your anonymity is assured; the researchers who have requested your participation will not receive any personal information about you.</p><h2>LEARNING MORE</h2><p>If you have questions about this research, please contact us at stanfordpsych251@gmail.com.</p><h2>INFORMED CONSENT</h2><p>Your participation indicates that you have read and understood this consent form and the information presented and that you agree to be in this study.</p></div></div> </div>"","""",""consent"","""",""y"","""","""","""","""","""","""","""","""","""","""","""","""","""","""","""","""","""","""","""","""","""","""","""","""","""","""","""","""","""","""","""","""","""","""","""","""",""""
"""","""","""","""","""",""instructions"",""3"",""45127"",""0.0-3.0"",""11-8-11:7:50"","""","""",""19716.5"","""","""","""","""","""",""[{""""page_index"""":0,""""viewing_time"""":8897.699999809265},{""""page_index"""":1,""""viewing_time"""":10818.100000143051}]"",""instructions1"","""","""","""","""","""","""","""","""","""","""","""","""","""","""","""","""","""","""","""","""","""","""","""","""","""","""","""","""","""","""","""","""","""","""",""""
"""","""","""","""","""",""audio_response"",""4"",""68623"",""0.0-4.0"",""11-8-11:7:50"","""","""",""68628.40000009537"","""","""","""","""","""","""","""",""{""""aud_check"""":""""Strawberries""""}"",""Strawberries"","""","""","""","""","""","""","""","""","""","""","""","""","""","""","""","""","""","""","""","""","""","""","""","""","""","""","""","""","""","""","""","""",""""
"""","""","""","""","""",""fullscreen"",""5"",""80870"",""0.0-6.0"",""11-8-11:7:50"","""","""","""","""","""","""","""","""","""","""","""","""",""false"",""false"","""","""","""","""","""","""","""","""","""","""","""","""","""","""","""","""","""","""","""","""","""","""","""","""","""","""","""","""","""","""",""""
"""","""","""","""","""",""instructions"",""6"",""94838"",""0.0-7.0"",""11-8-11:7:50"","""","""",""13966.799999952316"","""","""","""","""","""",""[{""""page_index"""":0,""""viewing_time"""":13966.299999952316}]"",""instructions1"","""","""","""","""","""","""","""","""","""","""","""","""","""","""","""","""","""","""","""","""","""","""","""","""","""","""","""","""","""","""","""","""","""","""",""""
"""","""","""","""","""",""audio_response"",""7"",""126119"",""0.0-8.0"",""11-8-11:7:50"","""","""","""","""","""","""","""","""","""","""","""","""","""","""","""","""","""","""","""","""","""","""","""","""","""","""","""","""","""","""","""","""","""","""","""","""","""","""","""","""","""","""","""","""",""""
"""","""","""","""","""",""html-slider-response"",""8"",""136084"",""0.0-9.0-0.0"",""11-8-11:7:50"","""","""",""9961.099999904633"",""<p>Based on the personal statement you just heard, please answer the following question using the slider below. .<br>(You can click on the appropriate part of the white bar, or drag the blue circle to the appropriate place.) <br><br><b>What is the likelihood that you would hire this person?</b></p><br>"","""","""","""","""","""",""follow_ups"","""","""","""","""",""29"",""hire"","""","""","""","""","""","""","""","""","""","""","""","""","""","""","""","""","""","""","""","""","""","""","""","""","""","""","""","""",""""
"""","""","""","""","""",""survey-html-form"",""9"",""294456"",""0.0-10.0"",""11-8-11:7:50"","""","""",""158368.29999995232"","""","""","""","""","""","""",""debrief"",""{""""age"""":""""36"""",""""gender"""":""""male"""",""""audio_output"""":""""Laptop Speakers"""",""""testing"""":""""I am not sure, but the audio I heard sounded like it was written by AI with minimal detail provided by the prompter, so perhaps this study involves testing the performance of some generative AI model?"""",""""audio_problems"""":""""I did not experience any technical difficulties, but the audio was of low quality, which surprised me a bit, considering that the test audio clip was very clear."""",""""attention"""":""""95""""}"","""","""","""","""","""",""36"",""male"",""Laptop Speakers"",""I did not experience any technical difficulties, but the audio was of low quality, which surprised me a bit, considering that the test audio clip was very clear."",""I am not sure, but the audio I heard sounded like it was written by AI with minimal detail provided by the prompter, so perhaps this study involves testing the performance of some generative AI model?"","""",""95"",""true"","""","""","""","""","""","""","""","""","""","""","""","""","""","""","""","""","""","""","""","""",""""
"""","""","""","""","""",""survey-html-form"",""10"",""340363"",""0.0-11.0"",""11-8-11:7:50"","""","""",""45904.89999985695"","""","""","""","""","""","""",""debrief2"",""{""""hire_exp"""":""""Yes"""",""""audio_quality"""":""""23"""",""""understandable"""":""""100"""",""""other"""":""""I have interviewed and hired many people, but I have no background or experience in sales.""""}"","""","""","""","""","""","""","""","""","""","""",""I have interviewed and hired many people, but I have no background or experience in sales."","""","""",""23"",""100"",""Yes"","""","""","""","""","""","""","""","""","""","""","""","""","""","""","""","""","""",""""
"""","""","""","""","""",""html-keyboard-response"",""11"",""340415"",""0.0-12.0"",""11-8-11:7:50"","""","""",""null"","""","""","""","""",""null"","""","""","""","""","""","""","""","""","""","""","""","""","""","""","""","""","""","""","""",""true"",""sound_files/matthew_sales_short_distort4.mp3"",""29"",""9961.099999904633"","""","""",""36"",""male"",""Laptop Speakers"",""I did not experience any technical difficulties, but the audio was of low quality, which surprised me a bit, considering that the test audio clip was very clear."",""I am not sure, but the audio I heard sounded like it was written by AI with minimal detail provided by the prompter, so perhaps this study involves testing the performance of some generative AI model?"",""I have interviewed and hired many people, but I have no background or experience in sales."",""95"",""23"",""100"",""Yes"",""true"",""11-8-11:7:50_comp_hire_summary""
"""","""","""","""","""",""html-keyboard-response"",""12"",""343419"",""0.0-13.0"",""11-8-11:7:50"","""","""",""null"",""Saving data ... One moment please..."","""","""","""",""null"","""","""","""","""","""","""","""","""","""","""","""","""","""","""","""","""","""","""","""","""","""","""","""","""","""","""","""","""","""","""","""","""","""","""","""","""",""""
",,,,,,,,,,,,,,,,,,,,,,,,,,,,,
,,,html-keyboard-response,11,121220,0.0-12.0,11-16-14:55:45,,,TRUE,sound_files/matthew_sales_short_distort4.mp3,50,12390,25,Prefer not to say,External Speakers,no,I don't know,nah,74,68,75,Yes,TRUE,11-16-14:55:45_comp_hire_summary,,,,,
11-16-14:55:45_comp_hire_all_data,"""success"",""timeout"",""failed_images"",""failed_audio"",""failed_video"",""trial_type"",""trial_index"",""time_elapsed"",""internal_node_id"",""subject"",""prolific_study_id"",""prolific_session_id"",""rt"",""stimulus"",""button_pressed"",""test_part"",""mobile"",""key_press"",""view_history"",""trial_part"",""responses"",""aud_check"",""pointer_error"",""pointer_redo"",""response"",""question"",""age"",""gender"",""audio_output"",""audio_problems"",""testing"",""other"",""attention"",""block_data"",""audio_quality"",""understandable"",""hire_exp"",""distorted_audio"",""sound_file"",""hire"",""response_rt"",""hire_values"",""hire_rts"",""debrief_age"",""debrief_gender"",""debrief_audio_output"",""debrief_audio_problems"",""debrief_testing"",""debrief_other"",""debrief_attention"",""debrief_audio_quality"",""debrief_understandable"",""debrief_hire_exp"",""data_summary"",""participant_id""
""true"",""false"",""[]"",""[]"",""[]"",""preload"",""0"",""116"",""0.0-0.0"",""11-16-14:55:45"","""","""","""","""","""","""","""","""","""","""","""","""","""","""","""","""","""","""","""","""","""","""","""","""","""","""","""","""","""","""","""","""","""","""","""","""","""","""","""","""","""","""","""","""",""""
"""","""","""","""","""",""html-button-response"",""1"",""2139"",""0.0-1.0"",""11-16-14:55:45"","""","""",""2022"",""Please note that this experiment is only designed to work from a computer or laptop.  Please <strong> do not </strong> continue if you are using a phone, tablet, or other mobile device.  If you are on a phone, tablet or other mobile device you will need to return to prolific <br>and click """"stop without completing"""".  <br> <br> If you are currently seeing this page from a laptop or computer, please click on the 'Continue' button.<br><br>"",""0"",""check_device"",""false"","""","""","""","""","""","""","""","""","""","""","""","""","""","""","""","""","""","""","""","""","""","""","""","""","""","""","""","""","""","""","""","""","""","""","""","""","""",""""
"""","""","""","""","""",""html-keyboard-response"",""2"",""6312"",""0.0-2.0"",""11-16-14:55:45"","""","""",""4170"",""<div style = 'font-size: .9vw; line-height: 1vw;'><h1>By answering the following questions, you are participating in a study being performed by cognitive scientists in the Stanford Department of Psychology.<br> <br><strong>***Please Read and press the 'Y' key to consent to this study*** </strong> </h1><h4>Consent for Participation in a Research Study</h4><div style='width: 100%; text-align: center'><div style='display: inline-block; margin: 0 auto; padding: 2vh 5vw; text-align: left'><h2>STUDY TITLE</h2><p>Perceiving Objects and Events</p><h2>RESEARCH STUDY SUMMARY, RISKS, AND BENEFITS</h2><p>Thank you for volunteering to participate in this PILOT research study. The purpose of this study is to better understand how we see and how we think. Study activities will include examining simple displays and then responding by answering questions, pressing some keys, or using a computer mouse. Because these are activities that many people already experience hundreds or thousands of times every day, there are no risks involved in this study. The study may have no benefits to you, but it may help the scientific community come to better understand how the human mind works. You must be at least 18 years old to participate. Your participation in this research is voluntary. You may decline to answer any or all of the following questions. You may decline further participation, at any time, without adverse consequences.</p><h2>DURATION</h2><p>If you agree to take part, the study will last approximately <strong>4 minutes</strong>.</p><h2>COSTS AND COMPENSATION</h2><p>There are no costs associated with participation in this study. You will receive <strong>$0.53</strong> for participating.</p><h1>CONFIDENTIALITY</h1><p>Your anonymity is assured; the researchers who have requested your participation will not receive any personal information about you.</p><h2>LEARNING MORE</h2><p>If you have questions about this research, please contact us at stanfordpsych251@gmail.com.</p><h2>INFORMED CONSENT</h2><p>Your participation indicates that you have read and understood this consent form and the information presented and that you agree to be in this study.</p></div></div> </div>"","""",""consent"","""",""y"","""","""","""","""","""","""","""","""","""","""","""","""","""","""","""","""","""","""","""","""","""","""","""","""","""","""","""","""","""","""","""","""","""","""","""","""",""""
"""","""","""","""","""",""instructions"",""3"",""20439"",""0.0-3.0"",""11-16-14:55:45"","""","""",""14125"","""","""","""","""","""",""[{""""page_index"""":0,""""viewing_time"""":6743},{""""page_index"""":1,""""viewing_time"""":7382}]"",""instructions1"","""","""","""","""","""","""","""","""","""","""","""","""","""","""","""","""","""","""","""","""","""","""","""","""","""","""","""","""","""","""","""","""","""","""",""""
"""","""","""","""","""",""audio_response"",""4"",""30134"",""0.0-4.0"",""11-16-14:55:45"","""","""",""30135.000000000004"","""","""","""","""","""","""","""",""{""""aud_check"""":""""Strawberries""""}"",""Strawberries"","""","""","""","""","""","""","""","""","""","""","""","""","""","""","""","""","""","""","""","""","""","""","""","""","""","""","""","""","""","""","""","""",""""
"""","""","""","""","""",""fullscreen"",""5"",""32353"",""0.0-6.0"",""11-16-14:55:45"","""","""","""","""","""","""","""","""","""","""","""","""",""false"",""false"","""","""","""","""","""","""","""","""","""","""","""","""","""","""","""","""","""","""","""","""","""","""","""","""","""","""","""","""","""","""",""""
"""","""","""","""","""",""instructions"",""6"",""38919"",""0.0-7.0"",""11-16-14:55:45"","""","""",""6565"","""","""","""","""","""",""[{""""page_index"""":0,""""viewing_time"""":6565}]"",""instructions1"","""","""","""","""","""","""","""","""","""","""","""","""","""","""","""","""","""","""","""","""","""","""","""","""","""","""","""","""","""","""","""","""","""","""",""""
"""","""","""","""","""",""audio_response"",""7"",""69396"",""0.0-8.0"",""11-16-14:55:45"","""","""","""","""","""","""","""","""","""","""","""","""","""","""","""","""","""","""","""","""","""","""","""","""","""","""","""","""","""","""","""","""","""","""","""","""","""","""","""","""","""","""","""","""",""""
"""","""","""","""","""",""html-slider-response"",""8"",""81789"",""0.0-9.0-0.0"",""11-16-14:55:45"","""","""",""12390"",""<p>Based on the personal statement you just heard, please answer the following question using the slider below. .<br>(You can click on the appropriate part of the white bar, or drag the blue circle to the appropriate place.) <br><br><b>What is the likelihood that you would hire this person?</b></p><br>"","""","""","""","""","""",""follow_ups"","""","""","""","""",""50"",""hire"","""","""","""","""","""","""","""","""","""","""","""","""","""","""","""","""","""","""","""","""","""","""","""","""","""","""","""","""",""""
"""","""","""","""","""",""survey-html-form"",""9"",""104668"",""0.0-10.0"",""11-16-14:55:45"","""","""",""22876"","""","""","""","""","""","""",""debrief"",""{""""age"""":""""25"""",""""gender"""":""""Prefer not to say"""",""""audio_output"""":""""External Speakers"""",""""testing"""":""""I don't know"""",""""audio_problems"""":""""no"""",""""attention"""":""""74""""}"","""","""","""","""","""",""25"",""Prefer not to say"",""External Speakers"",""no"",""I don't know"","""",""74"",""true"","""","""","""","""","""","""","""","""","""","""","""","""","""","""","""","""","""","""","""","""",""""
"""","""","""","""","""",""survey-html-form"",""10"",""121169"",""0.0-11.0"",""11-16-14:55:45"","""","""",""16500"","""","""","""","""","""","""",""debrief2"",""{""""hire_exp"""":""""Yes"""",""""audio_quality"""":""""68"""",""""understandable"""":""""75"""",""""other"""":""""nah""""}"","""","""","""","""","""","""","""","""","""","""",""nah"","""","""",""68"",""75"",""Yes"","""","""","""","""","""","""","""","""","""","""","""","""","""","""","""","""","""",""""
"""","""","""","""","""",""html-keyboard-response"",""11"",""121220"",""0.0-12.0"",""11-16-14:55:45"","""","""",""null"","""","""","""","""",""null"","""","""","""","""","""","""","""","""","""","""","""","""","""","""","""","""","""","""","""",""true"",""sound_files/matthew_sales_short_distort4.mp3"",""50"",""12390"","""","""",""25"",""Prefer not to say"",""External Speakers"",""no"",""I don't know"",""nah"",""74"",""68"",""75"",""Yes"",""true"",""11-16-14:55:45_comp_hire_summary""
"""","""","""","""","""",""html-keyboard-response"",""12"",""124233"",""0.0-13.0"",""11-16-14:55:45"","""","""",""null"",""Saving data ... One moment please..."","""","""","""",""null"","""","""","""","""","""","""","""","""","""","""","""","""","""","""","""","""","""","""","""","""","""","""","""","""","""","""","""","""","""","""","""","""","""","""","""","""",""""
",,,,,,,,,,,,,,,,,,,,,,,,,,,,,
,,,html-keyboard-response,11,146792,0.0-12.0,11-16-15:10:45,,,TRUE,sound_files/matthew_sales_short_distort4.mp3,26,3812,48,male,Laptop Speakers,no,audio,no,74,16,100,Yes,TRUE,11-16-15:10:45_comp_hire_summary,,,,,
